ax,ay,az,qx,qy,qz,qw,ts
-0.046624,0.016386,-0.120950,0.157173,-0.112865,-0.340834,0.919995,484068539.083933
-0.056905,0.041778,-0.090643,0.157496,-0.112339,-0.340759,0.920032,484068539.085340
-0.030278,0.014659,-0.002667,0.159036,-0.111298,-0.340669,0.919926,484068539.095671
0.026377,-0.033422,0.058148,0.160429,-0.109923,-0.340515,0.919907,484068539.110444
0.056883,-0.019167,0.098614,0.160992,-0.109027,-0.340391,0.919961,484068539.111594
0.042316,0.001586,0.136077,0.160429,-0.108940,-0.340308,0.920100,484068539.125470
0.034508,-0.010303,0.152082,0.158595,-0.109493,-0.340187,0.920397,484068539.141148
0.015227,-0.016712,0.114428,0.155763,-0.110339,-0.340046,0.920832,484068539.141690
-0.020248,-0.020372,0.016138,0.152776,-0.111382,-0.339867,0.921273,484068539.156713
-0.068824,-0.017784,-0.095800,0.150525,-0.111843,-0.339825,0.921603,484068539.172460
-0.098162,-0.015084,-0.134506,0.149526,-0.111772,-0.339874,0.921756,484068539.172786
-0.028863,-0.013576,-0.067516,0.149331,-0.111341,-0.340002,0.921793,484068539.188369
0.014071,-0.011921,-0.064619,0.149294,-0.110743,-0.340153,0.921815,484068539.203934
0.028650,-0.007200,-0.057534,0.149430,-0.110583,-0.340039,0.921854,484068539.205086
0.018434,-0.003743,-0.044441,0.149737,-0.110474,-0.339763,0.921920,484068539.219582
0.007339,-0.006685,-0.021353,0.150138,-0.110239,-0.339339,0.922038,484068539.236289
-0.005877,-0.012272,0.001397,0.150568,-0.109999,-0.338835,0.922182,484068539.236547
-0.012277,-0.018317,0.009939,0.150722,-0.109689,-0.338367,0.922366,484068539.251085
-0.023861,-0.025444,0.009380,0.150652,-0.109600,-0.338080,0.922493,484068539.267391
-0.027915,-0.024118,0.001303,0.150450,-0.109750,-0.337998,0.922538,484068539.267710
-0.031008,-0.018858,-0.007722,0.150305,-0.110378,-0.338053,0.922467,484068539.282951
-0.037991,-0.017893,-0.015448,0.150217,-0.110614,-0.338291,0.922366,484068539.298737
-0.033756,-0.010890,-0.013049,0.150244,-0.110707,-0.338539,0.922259,484068539.299173
-0.016632,-0.012428,-0.002798,0.150416,-0.110827,-0.338817,0.922115,484068539.314158
-0.009187,-0.008276,-0.005288,0.150537,-0.110599,-0.339147,0.922001,484068539.329912
-0.005544,-0.005040,0.012880,0.150690,-0.110331,-0.339475,0.921887,484068539.330568
0.003193,-0.001001,0.021404,0.150815,-0.110035,-0.339687,0.921824,484068539.345805
0.006595,-0.003734,0.010479,0.150942,-0.109827,-0.339781,0.921794,484068539.361412
-0.001808,-0.004665,0.000117,0.150964,-0.109904,-0.339808,0.921771,484068539.361696
-0.008257,-0.007492,0.016082,0.151034,-0.110076,-0.339845,0.921725,484068539.377356
-0.018261,0.000091,0.018101,0.150994,-0.110291,-0.339931,0.921674,484068539.393417
-0.021200,0.000268,0.014096,0.150828,-0.110846,-0.340030,0.921598,484068539.393652
-0.020176,0.000427,0.007351,0.150591,-0.111340,-0.340221,0.921507,484068539.408696
-0.014863,0.002414,0.003321,0.150351,-0.111736,-0.340466,0.921408,484068539.424123
-0.001175,0.005567,-0.019755,0.149956,-0.112037,-0.340641,0.921371,484068539.424355
0.003083,0.005523,-0.034566,0.149661,-0.112146,-0.340789,0.921351,484068539.439883
-0.000895,0.009395,-0.029077,0.149472,-0.112308,-0.340825,0.921349,484068539.455585
-0.004222,0.004544,-0.025148,0.149462,-0.112406,-0.340832,0.921336,484068539.455911
-0.014782,-0.003245,-0.004980,0.149639,-0.112553,-0.340763,0.921314,484068539.471570
-0.015502,-0.006854,0.014180,0.149846,-0.112525,-0.340805,0.921269,484068539.487250
-0.016685,-0.009325,0.010159,0.149929,-0.112296,-0.340943,0.921232,484068539.487565
-0.009472,-0.011599,-0.002784,0.149959,-0.112059,-0.341127,0.921188,484068539.503781
-0.005333,-0.006702,-0.012430,0.150004,-0.111938,-0.341375,0.921103,484068539.519606
-0.004803,-0.009197,-0.007085,0.150108,-0.112028,-0.341574,0.921002,484068539.520046
0.000818,-0.008568,0.000240,0.150186,-0.112193,-0.341719,0.920915,484068539.534994
0.000018,-0.009218,-0.011788,0.150314,-0.112304,-0.341821,0.920843,484068539.550219
-0.001304,-0.005806,0.002442,0.150422,-0.112239,-0.341894,0.920806,484068539.550458
0.004007,-0.013704,0.014844,0.150650,-0.111942,-0.341925,0.920794,484068539.567075
0.003473,-0.015064,0.018788,0.150735,-0.111538,-0.341927,0.920828,484068539.582300
0.005426,-0.013537,0.001907,0.150678,-0.111110,-0.341918,0.920892,484068539.582818
-0.005731,-0.015525,-0.011395,0.150581,-0.110927,-0.341916,0.920931,484068539.597861
-0.009488,-0.019625,-0.012429,0.150591,-0.110938,-0.341995,0.920899,484068539.613837
-0.008265,-0.015358,0.001865,0.150621,-0.110940,-0.342148,0.920837,484068539.614246
-0.009764,-0.007963,-0.003304,0.150575,-0.110856,-0.342359,0.920776,484068539.629747
-0.008549,-0.006108,-0.015300,0.150584,-0.110642,-0.342579,0.920718,484068539.645023
-0.004981,-0.008890,-0.023580,0.150698,-0.110406,-0.342766,0.920658,484068539.645453
-0.004407,-0.003644,-0.017171,0.150918,-0.110243,-0.342909,0.920589,484068539.660606
-0.006529,0.000613,0.001103,0.151055,-0.110172,-0.343033,0.920528,484068539.676511
-0.007176,0.002793,-0.001672,0.151091,-0.109981,-0.343150,0.920502,484068539.676913
-0.009287,-0.001301,0.000535,0.151075,-0.109738,-0.343278,0.920486,484068539.692294
-0.010555,-0.000540,-0.006921,0.151020,-0.109451,-0.343498,0.920447,484068539.707759
-0.007427,0.001589,-0.005251,0.151025,-0.109011,-0.343755,0.920402,484068539.708070
-0.001771,0.006151,-0.003018,0.151069,-0.108446,-0.344036,0.920357,484068539.723161
-0.000781,0.011026,-0.002528,0.151085,-0.107927,-0.344301,0.920316,484068539.740645
0.000996,0.006157,-0.002396,0.151189,-0.107510,-0.344539,0.920259,484068539.741044
0.010245,0.005551,-0.000846,0.151374,-0.107192,-0.344705,0.920203,484068539.755351
0.008827,0.001357,-0.004030,0.151597,-0.107008,-0.344844,0.920136,484068539.770912
0.001552,0.005156,0.001734,0.151819,-0.106951,-0.344904,0.920084,484068539.771333
-0.005168,0.002918,0.011799,0.152013,-0.106902,-0.344996,0.920023,484068539.786962
-0.006302,0.001588,0.020791,0.152113,-0.106859,-0.345012,0.920005,484068539.802561
-0.004985,-0.000981,0.017994,0.152164,-0.106652,-0.345079,0.919996,484068539.803032
-0.009892,-0.002510,0.017077,0.152152,-0.106459,-0.345164,0.919988,484068539.818523
-0.009946,-0.004679,0.015038,0.152109,-0.106292,-0.345315,0.919958,484068539.834200
-0.013519,0.001924,0.016560,0.152045,-0.106106,-0.345516,0.919914,484068539.834629
-0.015064,0.000458,0.019556,0.151963,-0.105923,-0.345732,0.919868,484068539.849570
-0.007649,-0.003623,0.018394,0.151836,-0.105640,-0.345986,0.919826,484068539.865304
-0.004594,0.000607,0.008967,0.151569,-0.105330,-0.346291,0.919791,484068539.865661
-0.001179,0.009766,0.000796,0.151274,-0.104976,-0.346614,0.919758,484068539.881650
-0.002007,0.011054,0.001856,0.151003,-0.104622,-0.346858,0.919751,484068539.896882
-0.001329,0.008620,0.004800,0.150797,-0.104154,-0.347004,0.919783,484068539.897272
-0.002537,0.011534,0.010669,0.150539,-0.103587,-0.347124,0.919844,484068539.912838
-0.000644,0.008205,0.010360,0.150341,-0.102961,-0.347161,0.919933,484068539.928291
-0.002916,0.003544,0.004464,0.150161,-0.102387,-0.347248,0.919993,484068539.928687
-0.006193,0.006012,0.011428,0.150005,-0.101891,-0.347332,0.920042,484068539.943338
-0.010542,-0.001132,0.009704,0.149862,-0.101500,-0.347422,0.920075,484068539.960026
-0.000864,-0.004149,0.011015,0.149751,-0.101026,-0.347571,0.920088,484068539.960335
-0.003753,-0.000954,0.012475,0.149567,-0.100593,-0.347712,0.920113,484068539.975035
-0.001442,-0.004599,0.014187,0.149365,-0.100240,-0.347923,0.920104,484068539.990602
0.001457,-0.003357,0.012148,0.149091,-0.099949,-0.348140,0.920098,484068539.991026
-0.000187,-0.006167,0.021388,0.148817,-0.099762,-0.348327,0.920092,484068540.006884
0.000732,-0.002398,0.021652,0.148456,-0.099678,-0.348532,0.920082,484068540.022028
-0.002010,-0.007780,0.022477,0.148147,-0.099752,-0.348752,0.920040,484068540.022324
-0.008316,-0.007617,0.015799,0.147879,-0.100022,-0.349005,0.919958,484068540.038682
-0.006718,-0.009357,0.005439,0.147512,-0.100256,-0.349323,0.919871,484068540.054150
-0.008524,0.001359,0.005365,0.147076,-0.100549,-0.349615,0.919798,484068540.054586
-0.008815,0.005930,0.025119,0.146661,-0.100638,-0.349850,0.919765,484068540.069741
-0.007111,0.019379,0.042018,0.146097,-0.099960,-0.349916,0.919904,484068540.085787
-0.014572,0.023817,0.034221,0.145325,-0.098439,-0.349773,0.920244,484068540.086211
-0.018601,0.010875,0.018526,0.144549,-0.096407,-0.349638,0.920633,484068540.101635
-0.018130,-0.007069,0.006252,0.144019,-0.094304,-0.349572,0.920959,484068540.117058
-0.009865,-0.004550,0.013945,0.143431,-0.092258,-0.349611,0.921243,484068540.117570
0.007200,-0.000059,0.023690,0.142754,-0.090070,-0.349662,0.921545,484068540.132690
0.003799,0.015813,0.036509,0.141888,-0.087807,-0.349677,0.921891,484068540.148397
-0.005053,-0.007797,0.049615,0.140896,-0.085557,-0.349664,0.922260,484068540.148767
0.017849,-0.033857,0.037337,0.139447,-0.083201,-0.349731,0.922670,484068540.164536
0.024379,-0.024344,0.012077,0.137689,-0.080936,-0.349854,0.923089,484068540.180084
0.030400,-0.016338,-0.029238,0.136016,-0.078769,-0.350054,0.923448,484068540.180488
0.022038,-0.003409,-0.046191,0.134504,-0.076990,-0.350188,0.923769,484068540.195877
0.027593,0.007849,-0.036186,0.133071,-0.075969,-0.350188,0.924061,484068540.211463
0.031596,0.014524,-0.025035,0.131756,-0.074849,-0.350002,0.924411,484068540.211834
0.025154,0.011473,-0.038856,0.130647,-0.073509,-0.349482,0.924873,484068540.227134
0.011783,-0.003577,-0.040801,0.129671,-0.072242,-0.348833,0.925355,484068540.244413
0.035909,-0.046177,-0.020773,0.128816,-0.071519,-0.348149,0.925788,484068540.245104
0.017691,-0.039991,-0.034324,0.127958,-0.071571,-0.347575,0.926119,484068540.258655
-0.014971,-0.008598,-0.054676,0.126938,-0.072937,-0.347387,0.926223,484068540.274289
-0.006574,-0.022700,-0.081883,0.125895,-0.075636,-0.347590,0.926073,484068540.274674
0.001356,-0.015373,-0.035450,0.125443,-0.078838,-0.347956,0.925730,484068540.290051
0.001965,-0.004023,0.034437,0.125234,-0.081634,-0.348231,0.925412,484068540.305909
-0.009285,0.006372,0.065030,0.124974,-0.083507,-0.348319,0.925247,484068540.306328
-0.009748,0.008196,0.045303,0.124508,-0.084058,-0.348252,0.925285,484068540.321683
0.003131,0.001554,0.031440,0.123997,-0.083883,-0.348104,0.925425,484068540.337409
0.011957,-0.011898,0.012022,0.123480,-0.083761,-0.347969,0.925556,484068540.338051
0.017403,-0.025161,-0.011778,0.123056,-0.084282,-0.347860,0.925606,484068540.353005
0.010975,-0.029061,-0.001666,0.122241,-0.085520,-0.347836,0.925610,484068540.368787
-0.000740,-0.023805,0.018149,0.121405,-0.086852,-0.347902,0.925571,484068540.369161
-0.029092,-0.021980,0.038971,0.120387,-0.087754,-0.348126,0.925535,484068540.384414
-0.044641,-0.014542,0.042422,0.119221,-0.088597,-0.348537,0.925451,484068540.400138
-0.035874,-0.020718,0.017072,0.117763,-0.088409,-0.349330,0.925356,484068540.400519
-0.012329,-0.020542,-0.003613,0.116200,-0.087780,-0.350361,0.925224,484068540.416509
0.008387,-0.011641,-0.015376,0.114790,-0.086670,-0.351427,0.925100,484068540.431682
0.034671,-0.005523,-0.031566,0.113423,-0.085292,-0.352298,0.925066,484068540.432080
0.043453,0.000631,-0.048688,0.112141,-0.083850,-0.352878,0.925133,484068540.447417
0.052784,-0.008846,-0.051962,0.110922,-0.082714,-0.353189,0.925263,484068540.463820
0.041662,-0.013535,-0.051245,0.109861,-0.081586,-0.353444,0.925393,484068540.465306
0.023897,-0.014997,-0.041492,0.108656,-0.081225,-0.353558,0.925523,484068540.478861
0.000474,-0.012968,-0.039938,0.107438,-0.081023,-0.353711,0.925624,484068540.494844
-0.014738,-0.006958,-0.058850,0.106300,-0.080942,-0.354057,0.925631,484068540.495272
-0.016084,-0.010214,-0.067702,0.105301,-0.080886,-0.354565,0.925555,484068540.510014
-0.003942,-0.011504,-0.034161,0.104735,-0.080577,-0.355188,0.925408,484068540.526223
0.006390,-0.007530,-0.031334,0.104264,-0.080320,-0.355834,0.925235,484068540.526622
0.008407,-0.009283,-0.028056,0.103887,-0.080201,-0.356541,0.925015,484068540.541936
0.006564,-0.009617,-0.025174,0.103493,-0.080571,-0.357174,0.924783,484068540.557656
0.004154,-0.005191,-0.026893,0.103146,-0.081190,-0.357799,0.924526,484068540.558012
0.001540,-0.007996,-0.029732,0.102839,-0.082046,-0.358483,0.924220,484068540.573131
0.001850,-0.010662,-0.048389,0.102691,-0.083094,-0.359202,0.923864,484068540.589749
-0.004492,-0.004252,-0.036259,0.102742,-0.084266,-0.359933,0.923467,484068540.590158
-0.005879,-0.001114,-0.029684,0.103071,-0.085488,-0.360631,0.923046,484068540.604701
-0.005803,0.002153,-0.034424,0.103602,-0.086871,-0.361306,0.922593,484068540.620356
-0.001465,-0.005820,-0.016927,0.104243,-0.088390,-0.361941,0.922127,484068540.620722
-0.003244,-0.005016,0.020810,0.104821,-0.089930,-0.362526,0.921683,484068540.636183
-0.004445,-0.006197,0.035716,0.105299,-0.091401,-0.363085,0.921264,484068540.651948
-0.009737,-0.000110,0.054515,0.105625,-0.092848,-0.363555,0.920896,484068540.652351
-0.014813,0.000824,0.062978,0.105567,-0.093666,-0.364049,0.920625,484068540.667774
-0.013947,-0.003671,0.059362,0.105197,-0.094162,-0.364563,0.920413,484068540.683629
-0.011231,-0.010122,0.040250,0.104586,-0.094338,-0.365105,0.920250,484068540.684165
-0.003859,0.001353,0.027645,0.103905,-0.094202,-0.365600,0.920145,484068540.698987
-0.010503,0.005991,0.011706,0.103150,-0.093596,-0.366052,0.920112,484068540.714615
-0.009484,-0.006401,-0.005314,0.102426,-0.092733,-0.366547,0.920083,484068540.714987
0.000818,-0.020421,-0.038710,0.101782,-0.091862,-0.367075,0.920032,484068540.730554
0.001336,-0.021642,-0.055354,0.101495,-0.090878,-0.367559,0.919968,484068540.746097
-0.012844,-0.006907,-0.032459,0.101313,-0.089541,-0.367872,0.919994,484068540.746521
-0.012600,0.006232,-0.004891,0.101158,-0.087490,-0.368017,0.920150,484068540.761875
-0.012557,-0.002023,0.008056,0.100861,-0.084897,-0.368064,0.920407,484068540.778033
-0.008548,-0.007828,-0.003518,0.100636,-0.081571,-0.368032,0.920745,484068540.778420
-0.005246,-0.001940,-0.007911,0.100488,-0.078021,-0.367950,0.921101,484068540.793443
-0.018217,-0.006792,0.000752,0.100313,-0.074619,-0.367816,0.921456,484068540.809110
-0.016307,-0.003583,0.011605,0.099867,-0.071773,-0.367769,0.921749,484068540.809470
-0.008415,-0.008865,0.016496,0.099260,-0.069192,-0.367806,0.921997,484068540.825775
0.000801,-0.009634,-0.020154,0.098567,-0.067228,-0.367863,0.922194,484068540.840911
0.010424,-0.015398,-0.049956,0.097958,-0.066016,-0.367961,0.922307,484068540.841349
0.006624,-0.012178,-0.047429,0.097614,-0.065036,-0.368082,0.922365,484068540.856434
-0.000466,-0.001232,-0.016603,0.097396,-0.063991,-0.368067,0.922467,484068540.872119
-0.002292,0.018816,0.025938,0.097239,-0.062182,-0.367853,0.922693,484068540.872481
-0.014675,0.011568,0.004179,0.096884,-0.059678,-0.367502,0.923035,484068540.887750
-0.013863,0.006400,-0.040723,0.096674,-0.056732,-0.367120,0.923395,484068540.903727
-0.021643,-0.011432,-0.054520,0.096512,-0.054418,-0.366780,0.923686,484068540.904098
-0.013986,-0.014318,-0.043174,0.096370,-0.053214,-0.366700,0.923803,484068540.919135
-0.007192,-0.017642,-0.018793,0.096256,-0.053292,-0.366814,0.923765,484068540.935016
-0.001043,-0.010054,0.007739,0.095812,-0.054029,-0.367052,0.923674,484068540.935425
0.002041,-0.004916,0.023032,0.095051,-0.055132,-0.367324,0.923579,484068540.950703
0.012951,-0.003179,-0.002054,0.094023,-0.056599,-0.367527,0.923515,484068540.966646
0.018704,0.005265,-0.025701,0.092936,-0.058021,-0.367568,0.923520,484068540.967174
0.013520,0.008399,-0.034416,0.092116,-0.059648,-0.367441,0.923550,484068540.982223
-0.005237,0.005280,-0.030010,0.091433,-0.061079,-0.367324,0.923570,484068540.998082
-0.022536,-0.005573,-0.028251,0.090708,-0.062684,-0.367232,0.923571,484068540.998496
-0.022847,-0.006670,-0.020367,0.090205,-0.064022,-0.367246,0.923523,484068541.013990
-0.027704,-0.007042,-0.009080,0.089726,-0.065764,-0.367410,0.923382,484068541.029526
-0.020502,-0.007125,0.000497,0.089147,-0.068208,-0.367716,0.923139,484068541.029910
-0.013451,-0.010607,0.009262,0.088465,-0.071669,-0.368083,0.922796,484068541.045765
-0.005828,-0.017981,0.018255,0.087631,-0.075246,-0.368553,0.922403,484068541.060883
0.010967,-0.017422,0.007046,0.086759,-0.078885,-0.369022,0.921994,484068541.061250
0.016614,-0.000712,-0.008961,0.086153,-0.082097,-0.369273,0.921670,484068541.076958
0.023418,0.030218,-0.015731,0.085875,-0.083977,-0.369152,0.921575,484068541.092251
0.015565,0.055512,-0.016732,0.086148,-0.085261,-0.368447,0.921714,484068541.092633
0.000985,0.049454,-0.010284,0.086249,-0.085890,-0.367427,0.922053,484068541.108099
-0.029837,0.013302,-0.002708,0.085770,-0.086392,-0.366323,0.922490,484068541.124008
-0.038894,0.002074,-0.010801,0.085432,-0.086300,-0.365443,0.922879,484068541.124426
-0.048301,-0.001888,-0.023354,0.084945,-0.086282,-0.364813,0.923175,484068541.139800
-0.054304,-0.000110,-0.028813,0.084347,-0.086635,-0.364484,0.923326,484068541.155360
-0.051029,-0.001546,-0.026394,0.083381,-0.088149,-0.364367,0.923317,484068541.155770
-0.048768,0.005074,-0.024684,0.082648,-0.089434,-0.364604,0.923166,484068541.171085
-0.043717,0.003207,-0.029476,0.081890,-0.090889,-0.365081,0.922903,484068541.187256
-0.048433,0.004675,-0.035017,0.081201,-0.092177,-0.365921,0.922503,484068541.188740
-0.048175,0.007705,-0.027403,0.080298,-0.093577,-0.366957,0.922029,484068541.202348
-0.040863,0.012717,-0.013022,0.079940,-0.093863,-0.368042,0.921599,484068541.218048
-0.034405,0.039246,-0.007125,0.079666,-0.093467,-0.368818,0.921353,484068541.218424
-0.030440,0.061514,-0.006440,0.079452,-0.092258,-0.369088,0.921385,484068541.234009
-0.015997,0.033821,-0.013674,0.078361,-0.090450,-0.368901,0.921732,484068541.249800
0.001036,0.004286,-0.018004,0.078266,-0.088216,-0.368565,0.922091,484068541.250239
0.005945,-0.012460,-0.036307,0.078239,-0.086205,-0.368142,0.922453,484068541.265887
-0.003031,-0.017753,-0.047229,0.078485,-0.084946,-0.367749,0.922705,484068541.281196
-0.016088,-0.018657,-0.039569,0.078873,-0.084720,-0.367581,0.922760,484068541.281578
-0.025147,-0.015803,-0.017151,0.079379,-0.085274,-0.367600,0.922658,484068541.296686
-0.028651,-0.014911,0.014617,0.079883,-0.086409,-0.367796,0.922431,484068541.312624
-0.035612,-0.003598,0.041111,0.080195,-0.088422,-0.368194,0.922054,484068541.313014
-0.030971,-0.002640,0.051592,0.080351,-0.089702,-0.368936,0.921620,484068541.328537
-0.026052,-0.005457,0.053384,0.080276,-0.090763,-0.369871,0.921148,484068541.343667
-0.024509,-0.003528,0.033637,0.080150,-0.091507,-0.370915,0.920665,484068541.344243
-0.021007,0.002278,-0.014836,0.079994,-0.092257,-0.372012,0.920161,484068541.360239
-0.015306,0.002248,-0.025875,0.080190,-0.092434,-0.373167,0.919659,484068541.375604
-0.014975,0.003623,-0.024356,0.080572,-0.092534,-0.374274,0.919165,484068541.376178
-0.011430,0.006942,-0.012051,0.080810,-0.092679,-0.375305,0.918709,484068541.390460
-0.009591,0.004473,-0.000503,0.081203,-0.092673,-0.376270,0.918280,484068541.407200
-0.013254,0.003412,0.007455,0.081510,-0.092627,-0.377166,0.917890,484068541.407656
-0.017213,0.001332,0.022403,0.081685,-0.092490,-0.378014,0.917539,484068541.422475
-0.016054,-0.002765,0.022852,0.081699,-0.092543,-0.378820,0.917200,484068541.437786
-0.010476,-0.006270,0.018063,0.081581,-0.092226,-0.379693,0.916882,484068541.438736
-0.006783,-0.011139,0.010405,0.081342,-0.091978,-0.380561,0.916568,484068541.454339
-0.001264,-0.009073,0.001127,0.081091,-0.091746,-0.381425,0.916254,484068541.469793
-0.002514,-0.006588,-0.003742,0.080973,-0.091521,-0.382339,0.915906,484068541.470022
-0.010253,-0.004127,-0.014377,0.080777,-0.091233,-0.383239,0.915576,484068541.485796
-0.007506,-0.002583,-0.023247,0.080597,-0.091069,-0.384118,0.915240,484068541.501308
-0.010946,-0.000010,-0.021570,0.080352,-0.091167,-0.384927,0.914912,484068541.501936
-0.014645,-0.004006,-0.025478,0.080128,-0.091451,-0.385682,0.914585,484068541.516847
-0.020850,0.000884,-0.025307,0.079767,-0.091840,-0.386478,0.914241,484068541.533026
-0.026672,0.001510,-0.025885,0.079373,-0.092258,-0.387284,0.913892,484068541.533478
-0.026558,0.001909,-0.024907,0.079007,-0.092527,-0.388088,0.913556,484068541.548559
-0.021896,0.005257,-0.026646,0.078651,-0.092581,-0.388884,0.913243,484068541.563908
-0.020811,0.002882,-0.024452,0.078377,-0.092615,-0.389675,0.912925,484068541.564317
-0.022468,0.002159,-0.022746,0.078157,-0.092645,-0.390486,0.912595,484068541.580148
-0.024064,0.004492,-0.014159,0.077949,-0.092747,-0.391302,0.912252,484068541.595706
-0.017594,0.000665,-0.011501,0.077697,-0.092994,-0.392168,0.911877,484068541.596070
-0.021680,0.001099,-0.010853,0.077588,-0.093187,-0.393032,0.911494,484068541.611815
-0.023927,0.007760,0.000990,0.077492,-0.093425,-0.393902,0.911103,484068541.627759
-0.023131,0.008173,0.018081,0.077455,-0.093616,-0.394765,0.910712,484068541.628223
-0.023741,0.008973,0.025914,0.077346,-0.093773,-0.395691,0.910304,484068541.642790
-0.016220,0.005747,0.023581,0.077222,-0.093872,-0.396617,0.909901,484068541.659105
-0.015186,0.011055,0.026073,0.076903,-0.093958,-0.397537,0.909518,484068541.659530
-0.005181,0.010072,0.022470,0.076595,-0.093930,-0.398470,0.909138,484068541.674440
0.011385,0.010689,0.017074,0.076374,-0.093729,-0.399349,0.908792,484068541.689959
0.019793,0.010128,0.013811,0.076179,-0.093353,-0.400064,0.908532,484068541.690319
0.020468,0.015178,0.026342,0.076009,-0.093153,-0.400608,0.908327,484068541.706101
0.019807,0.011804,0.041037,0.075759,-0.092864,-0.401035,0.908189,484068541.721667
0.014957,0.008350,0.032184,0.075469,-0.092408,-0.401347,0.908122,484068541.722042
0.012707,0.005098,0.015204,0.075113,-0.092152,-0.401502,0.908109,484068541.737319
0.008478,-0.000795,0.008621,0.074721,-0.092075,-0.401512,0.908145,484068541.754180
0.002949,-0.000648,0.016001,0.074396,-0.092186,-0.401435,0.908194,484068541.754604
-0.002970,-0.007495,0.026357,0.074139,-0.092447,-0.401328,0.908236,484068541.768542
-0.002683,-0.008029,0.030659,0.073736,-0.092690,-0.401217,0.908293,484068541.784585
-0.002043,-0.008883,0.023133,0.073190,-0.092884,-0.401040,0.908396,484068541.784960
-0.007736,-0.010630,0.007672,0.072594,-0.093075,-0.400801,0.908529,484068541.800557
-0.007492,-0.011769,-0.007939,0.072027,-0.093274,-0.400580,0.908652,484068541.816080
-0.010594,-0.015830,-0.016057,0.071552,-0.093517,-0.400406,0.908741,484068541.816505
-0.012083,-0.012696,-0.008376,0.071109,-0.093715,-0.400243,0.908827,484068541.831570
-0.015496,-0.008753,-0.001946,0.070630,-0.094020,-0.400047,0.908919,484068541.847952
-0.011210,-0.012458,-0.000626,0.070157,-0.094031,-0.399885,0.909026,484068541.848369
-0.007973,-0.009837,-0.011377,0.069568,-0.094085,-0.399730,0.909134,484068541.863501
-0.007389,-0.011336,-0.021728,0.068973,-0.094214,-0.399568,0.909237,484068541.878942
-0.008154,-0.011255,-0.012176,0.068459,-0.094506,-0.399357,0.909338,484068541.879298
-0.009369,-0.007920,-0.000758,0.067938,-0.094830,-0.399192,0.909416,484068541.894523
-0.012206,-0.004634,0.004726,0.067357,-0.095148,-0.399073,0.909478,484068541.910936
-0.005534,-0.004639,-0.003635,0.066726,-0.095228,-0.398988,0.909553,484068541.911615
-0.002477,-0.006812,-0.020590,0.066114,-0.095261,-0.398927,0.909622,484068541.926013
0.005069,-0.008749,-0.029665,0.065593,-0.095210,-0.398862,0.909693,484068541.941900
0.001597,-0.005207,-0.028560,0.065040,-0.095174,-0.398699,0.909808,484068541.942264
-0.001308,0.000179,-0.034813,0.064424,-0.095143,-0.398441,0.909968,484068541.957604
0.000017,-0.002904,-0.028560,0.063944,-0.095235,-0.398119,0.910133,484068541.973336
-0.003152,-0.005470,-0.018071,0.063530,-0.095375,-0.397770,0.910300,484068541.973702
-0.000027,-0.003833,-0.021298,0.063114,-0.095431,-0.397397,0.910486,484068541.989102
0.002994,-0.004856,-0.026411,0.062765,-0.095424,-0.396932,0.910714,484068542.004692
0.000250,-0.003542,-0.018290,0.062487,-0.095478,-0.396416,0.910952,484068542.005121
-0.001318,-0.006782,-0.010448,0.062339,-0.095538,-0.395878,0.911190,484068542.020448
-0.005533,-0.009705,0.000207,0.062188,-0.095584,-0.395332,0.911432,484068542.036740
-0.003972,-0.016499,-0.002119,0.062106,-0.095497,-0.394868,0.911648,484068542.037104
-0.005696,-0.014534,-0.014885,0.062073,-0.095262,-0.394499,0.911835,484068542.051956
0.002003,-0.021732,-0.007102,0.062239,-0.094910,-0.394206,0.911987,484068542.067668
0.007200,-0.028667,0.019047,0.062492,-0.094313,-0.393960,0.912138,484068542.068029
0.019409,-0.051543,0.040566,0.062740,-0.093364,-0.393774,0.912299,484068542.083647
0.025430,-0.069283,0.016013,0.062224,-0.091905,-0.393764,0.912486,484068542.099190
0.029638,-0.080656,-0.020550,0.061566,-0.090223,-0.393946,0.912621,484068542.099555
0.023477,-0.073889,-0.058723,0.061391,-0.088581,-0.394290,0.912645,484068542.114819
0.007179,-0.059074,-0.092933,0.060632,-0.087372,-0.394647,0.912658,484068542.130675
-0.017512,-0.047009,-0.112700,0.059960,-0.086585,-0.395126,0.912569,484068542.131112
-0.029405,-0.040574,-0.121806,0.059529,-0.086124,-0.395706,0.912390,484068542.146175
-0.040565,-0.038382,-0.120622,0.059556,-0.085857,-0.396366,0.912127,484068542.162124
-0.034396,-0.033678,-0.111021,0.060172,-0.085461,-0.397169,0.911775,484068542.162542
-0.041997,-0.029255,-0.069398,0.061318,-0.084652,-0.398083,0.911375,484068542.177800
-0.039714,-0.022189,-0.014878,0.062712,-0.083167,-0.399142,0.910953,484068542.193327
-0.021616,-0.001302,0.049230,0.064101,-0.081476,-0.400282,0.910509,484068542.194070
-0.018106,0.014435,0.051987,0.065228,-0.079064,-0.401533,0.910091,484068542.209793
-0.013459,0.025785,0.037190,0.066147,-0.076706,-0.402842,0.909648,484068542.225041
-0.006020,0.033039,0.024709,0.066744,-0.074668,-0.404156,0.909191,484068542.225426
0.003320,0.049006,0.016786,0.067537,-0.073187,-0.405370,0.908712,484068542.240708
0.005716,0.056456,0.026268,0.068283,-0.072153,-0.406469,0.908248,484068542.256510
0.007867,0.069016,0.041629,0.068973,-0.071404,-0.407390,0.907842,484068542.256934
0.011753,0.076974,0.053524,0.068834,-0.070269,-0.408118,0.907615,484068542.272115
0.011497,0.084438,0.058930,0.069171,-0.069486,-0.408643,0.907413,484068542.288108
0.016261,0.084861,0.058509,0.069361,-0.068553,-0.408962,0.907326,484068542.288514
0.023337,0.084402,0.059570,0.069429,-0.067503,-0.409069,0.907351,484068542.303734
0.033820,0.082701,0.059412,0.068718,-0.065855,-0.409037,0.907540,484068542.319348
0.050305,0.063330,0.041883,0.068459,-0.065241,-0.408729,0.907743,484068542.319708
0.050962,0.053826,0.026075,0.067999,-0.065076,-0.408128,0.908060,484068542.335171
0.046302,0.042893,0.007720,0.067193,-0.064678,-0.407253,0.908541,484068542.351250
0.033408,0.034695,-0.004410,0.066546,-0.065458,-0.406009,0.909089,484068542.351847
0.014791,0.022112,-0.011928,0.065929,-0.066462,-0.404510,0.909729,484068542.366559
-0.005581,0.010767,-0.016644,0.065416,-0.067482,-0.402879,0.910415,484068542.382317
-0.019253,-0.001793,-0.017503,0.064846,-0.068604,-0.401169,0.911127,484068542.382729
-0.025113,-0.017045,-0.014437,0.064446,-0.069372,-0.399520,0.911821,484068542.398098
-0.026158,-0.028212,-0.021257,0.064071,-0.070042,-0.397907,0.912501,484068542.413840
-0.038007,-0.033800,-0.018665,0.063757,-0.070661,-0.396349,0.913153,484068542.414280
-0.045109,-0.041923,-0.012065,0.063689,-0.072030,-0.394890,0.913684,484068542.429712
-0.065106,-0.044634,-0.006007,0.063437,-0.072724,-0.393702,0.914158,484068542.445006
-0.075624,-0.043599,0.003970,0.063159,-0.073443,-0.392773,0.914520,484068542.445242
-0.079332,-0.041569,0.009510,0.062845,-0.074121,-0.392136,0.914760,484068542.461310
-0.072793,-0.037551,0.012619,0.062448,-0.074671,-0.391790,0.914891,484068542.476729
-0.064822,-0.034027,0.011242,0.062099,-0.075126,-0.391709,0.914912,484068542.477194
-0.057959,-0.029253,0.018916,0.061794,-0.075433,-0.391834,0.914854,484068542.493058
-0.040105,-0.032089,0.043657,0.061540,-0.075516,-0.392166,0.914722,484068542.508126
-0.020032,-0.032395,0.064716,0.061314,-0.075291,-0.392688,0.914532,484068542.508611
-0.008624,-0.036981,0.068598,0.061065,-0.074814,-0.393392,0.914285,484068542.523816
0.000072,-0.043940,0.067744,0.060775,-0.074127,-0.394255,0.913988,484068542.539477
0.008728,-0.042236,0.072709,0.060320,-0.073445,-0.395187,0.913671,484068542.540441
0.018448,-0.034748,0.061334,0.060218,-0.072980,-0.396277,0.913243,484068542.555552
0.026656,-0.012444,-0.010039,0.059164,-0.072825,-0.397287,0.912885,484068542.571384
0.030173,-0.007908,-0.043590,0.058018,-0.073002,-0.398211,0.912542,484068542.571984
0.023331,-0.002096,-0.066205,0.056997,-0.072921,-0.398959,0.912286,484068542.586808
0.023241,-0.003446,-0.074908,0.056111,-0.073159,-0.399402,0.912128,484068542.602597
0.017109,-0.000438,-0.085791,0.055397,-0.073296,-0.399569,0.912087,484068542.602953
0.000604,-0.004586,-0.085905,0.054875,-0.073401,-0.399540,0.912123,484068542.618264
-0.012728,-0.011423,-0.076986,0.054420,-0.073557,-0.399398,0.912200,484068542.634118
-0.029124,-0.021835,-0.071258,0.054117,-0.073760,-0.399276,0.912255,484068542.634660
-0.040196,-0.024537,-0.064288,0.053818,-0.074092,-0.399184,0.912286,484068542.649423
-0.047429,-0.024402,-0.069946,0.053566,-0.074571,-0.399207,0.912252,484068542.665678
-0.046697,-0.026767,-0.065506,0.053403,-0.075704,-0.399310,0.912123,484068542.666118
-0.033525,-0.023532,-0.037179,0.053334,-0.076232,-0.399588,0.911961,484068542.680908
-0.030688,-0.023558,-0.033250,0.053239,-0.076725,-0.399900,0.911789,484068542.696959
-0.017998,-0.022136,-0.031200,0.053177,-0.077442,-0.400231,0.911586,484068542.697360
-0.019340,-0.024736,-0.037521,0.052992,-0.077925,-0.400584,0.911401,484068542.713112
-0.022262,-0.022415,-0.045088,0.052832,-0.078516,-0.400940,0.911203,484068542.728382
-0.022836,-0.015330,-0.040513,0.052804,-0.079221,-0.401343,0.910966,484068542.728767
-0.022049,-0.014251,-0.022314,0.052931,-0.080206,-0.401805,0.910669,484068542.744698
-0.030342,-0.012718,0.003591,0.053113,-0.080713,-0.402390,0.910355,484068542.759839
-0.023307,-0.012432,0.024974,0.053220,-0.080957,-0.403096,0.910015,484068542.760171
-0.011320,-0.013043,0.036009,0.053205,-0.081098,-0.403936,0.909631,484068542.775683
-0.000744,-0.010540,0.035061,0.053307,-0.081415,-0.404784,0.909219,484068542.791704
0.012016,-0.008557,0.035834,0.053173,-0.081660,-0.405709,0.908793,484068542.792118
0.027913,-0.006348,0.030446,0.053021,-0.082040,-0.406593,0.908373,484068542.807125
0.027842,-0.008014,0.039610,0.053163,-0.082295,-0.407447,0.907958,484068542.822701
0.028437,-0.003819,0.042402,0.052882,-0.082753,-0.408226,0.907583,484068542.823076
0.029677,-0.002669,0.034762,0.052514,-0.083065,-0.408942,0.907254,484068542.837848
0.031504,-0.002005,0.025523,0.052079,-0.083269,-0.409612,0.906958,484068542.854661
0.025096,-0.001090,0.005572,0.051840,-0.083076,-0.410321,0.906669,484068542.855768
0.015111,-0.000477,-0.001891,0.051498,-0.083246,-0.410918,0.906402,484068542.869587
0.012337,-0.002902,-0.004326,0.051205,-0.083452,-0.411518,0.906128,484068542.885331
0.013213,-0.005465,-0.002926,0.050893,-0.083701,-0.412116,0.905850,484068542.885615
0.012722,-0.001430,-0.003608,0.050663,-0.083826,-0.412747,0.905564,484068542.900666
0.017094,0.001872,-0.004294,0.050327,-0.084074,-0.413352,0.905284,484068542.916943
0.026331,-0.000073,-0.009885,0.049981,-0.084161,-0.413948,0.905022,484068542.917215
0.029784,0.000627,-0.012022,0.049793,-0.083683,-0.414540,0.904806,484068542.932712
0.029795,-0.008539,-0.020521,0.049420,-0.083586,-0.415003,0.904624,484068542.948493
0.026359,-0.011810,-0.030938,0.049092,-0.083491,-0.415438,0.904450,484068542.949009
0.027605,-0.011046,-0.036350,0.048837,-0.083444,-0.415777,0.904313,484068542.963492
0.024623,-0.012006,-0.034616,0.048932,-0.083174,-0.416084,0.904191,484068542.979404
0.019460,-0.007917,-0.028521,0.048791,-0.083374,-0.416310,0.904076,484068542.980557
0.016110,-0.011237,-0.021974,0.048723,-0.083595,-0.416514,0.903966,484068542.995192
0.009120,-0.012185,-0.011402,0.048644,-0.083830,-0.416686,0.903869,484068543.636634
0.013139,-0.016577,-0.002406,0.048844,-0.083916,-0.416927,0.903739,484068543.636875
0.012140,-0.018192,0.004441,0.049003,-0.083970,-0.417103,0.903644,484068543.652309
0.018270,-0.014927,0.007380,0.049125,-0.083916,-0.417291,0.903556,484068543.667854
0.018128,-0.018638,-0.011732,0.049465,-0.083787,-0.417496,0.903455,484068543.668238
0.013988,-0.018731,-0.024403,0.049469,-0.083850,-0.417630,0.903386,484068543.683833
0.015286,-0.014917,-0.030870,0.049423,-0.084049,-0.417699,0.903339,484068543.699621
0.013747,-0.012355,-0.029523,0.049452,-0.084290,-0.417745,0.903293,484068543.700037
0.009617,-0.012443,-0.023015,0.049504,-0.084554,-0.417727,0.903274,484068543.714956
0.008681,-0.011532,-0.025972,0.049624,-0.084744,-0.417642,0.903289,484068543.730746
0.003260,-0.013065,-0.027547,0.049729,-0.084919,-0.417468,0.903347,484068543.731019
0.002316,-0.016725,-0.024138,0.049952,-0.085127,-0.417291,0.903397,484068543.746487
-0.000950,-0.016466,-0.016459,0.050210,-0.085413,-0.417055,0.903465,484068543.762084
-0.009230,-0.017221,-0.009842,0.050447,-0.085822,-0.416856,0.903504,484068543.762319
-0.010462,-0.021618,0.001568,0.050689,-0.086267,-0.416653,0.903542,484068543.778111
-0.017648,-0.017318,0.006645,0.050938,-0.087059,-0.416487,0.903529,484068543.793951
-0.021276,-0.015564,-0.004513,0.050939,-0.087549,-0.416424,0.903511,484068543.794222
-0.022783,-0.010700,-0.013003,0.050895,-0.088027,-0.416447,0.903456,484068543.809544
-0.018239,-0.007973,-0.019298,0.050890,-0.088443,-0.416548,0.903369,484068543.825202
-0.013634,-0.003523,-0.020069,0.050896,-0.088808,-0.416689,0.903268,484068543.825440
-0.012688,0.000879,-0.020889,0.050955,-0.089148,-0.416825,0.903168,484068543.840796
-0.007561,0.004035,-0.016373,0.051051,-0.089307,-0.416934,0.903097,484068543.856748
-0.005998,0.005633,-0.012155,0.051170,-0.089476,-0.417001,0.903043,484068543.857027
-0.002568,0.007071,-0.013144,0.051273,-0.089580,-0.417060,0.902999,484068543.872294
-0.002161,0.002927,-0.008704,0.051405,-0.089720,-0.417093,0.902963,484068543.888110
-0.004183,0.003895,0.001411,0.051560,-0.089891,-0.417088,0.902939,484068543.888337
-0.009636,0.007618,0.004611,0.051637,-0.090111,-0.417080,0.902916,484068543.903779
-0.007835,0.002325,-0.004323,0.051644,-0.090384,-0.417041,0.902907,484068543.919550
-0.006894,0.001584,-0.006586,0.051793,-0.090690,-0.416962,0.902904,484068543.919782
-0.004736,0.000648,-0.010793,0.051992,-0.091025,-0.416860,0.902906,484068543.935278
-0.003485,-0.002384,-0.010730,0.052228,-0.091387,-0.416729,0.902916,484068543.951280
-0.014220,-0.003811,-0.011802,0.052457,-0.091849,-0.416566,0.902931,484068543.951650
-0.017055,-0.006423,-0.020891,0.052704,-0.092317,-0.416400,0.902946,484068543.966698
-0.022643,-0.006152,-0.032840,0.052989,-0.092734,-0.416261,0.902950,484068543.982557
-0.031062,-0.008479,-0.020545,0.053332,-0.093121,-0.416274,0.902884,484068543.982788
-0.026107,-0.010275,-0.010665,0.053694,-0.093303,-0.416475,0.902752,484068543.998262
-0.020261,-0.015371,-0.024187,0.054084,-0.093086,-0.416778,0.902611,484068544.013915
-0.019361,-0.018982,-0.037431,0.054532,-0.092575,-0.417130,0.902474,484068544.014149
-0.039573,-0.004313,-0.039526,0.054756,-0.091959,-0.417612,0.902300,484068544.029586
-0.039593,0.014317,-0.022664,0.054861,-0.090429,-0.418344,0.902109,484068544.045606
-0.031439,0.009763,0.000330,0.055007,-0.087599,-0.419389,0.901895,484068544.045893
0.011879,0.016479,-0.009146,0.055481,-0.082632,-0.420579,0.901780,484068544.061317
0.039773,0.012019,-0.033152,0.056115,-0.075891,-0.421557,0.901877,484068544.077202
0.062219,0.012537,-0.062653,0.056891,-0.067646,-0.421976,0.902288,484068544.077434
0.057360,0.025449,-0.101329,0.057723,-0.058722,-0.421741,0.902970,484068544.092733
0.025540,0.015663,-0.157063,0.058657,-0.050505,-0.421104,0.903704,484068544.109519
-0.039530,-0.038009,-0.187123,0.059814,-0.043879,-0.420657,0.904182,484068544.109939
-0.000857,0.027825,-0.158132,0.060830,-0.039095,-0.420397,0.904454,484068544.124888
-0.019609,0.047761,-0.122503,0.061584,-0.036460,-0.420227,0.904592,484068544.140495
-0.073196,0.036451,-0.080736,0.062087,-0.035682,-0.420220,0.904592,484068544.141041
-0.053603,0.010045,0.015280,0.063094,-0.035675,-0.420348,0.904464,484068544.156094
-0.038754,0.010124,0.063751,0.063963,-0.035883,-0.420660,0.904249,484068544.172004
-0.026800,0.010560,0.084924,0.064530,-0.035870,-0.421185,0.903965,484068544.172418
-0.013141,0.012640,0.083693,0.065050,-0.034769,-0.421911,0.903632,484068544.187509
0.004961,0.003928,0.083104,0.065555,-0.032611,-0.422598,0.903355,484068544.203536
0.028789,0.014076,0.084685,0.065894,-0.029748,-0.423079,0.903204,484068544.203955
0.039822,0.022139,0.073099,0.065890,-0.026832,-0.423293,0.903195,484068544.219291
0.022259,0.025973,0.050419,0.065444,-0.025071,-0.423342,0.903255,484068544.234728
0.004713,0.013626,0.011089,0.064826,-0.024776,-0.423483,0.903242,484068544.235251
0.002824,-0.002306,-0.018740,0.064256,-0.025901,-0.423758,0.903122,484068544.250670
0.001451,-0.005142,-0.021352,0.064016,-0.027919,-0.424251,0.902848,484068544.266359
-0.002668,-0.005202,-0.000167,0.064412,-0.030277,-0.424882,0.902446,484068544.266718
0.000412,0.022308,-0.004064,0.065959,-0.032455,-0.425719,0.901865,484068544.282137
0.021502,0.031851,0.020238,0.067671,-0.034219,-0.426814,0.901155,484068544.297850
0.027284,0.024813,0.078267,0.068899,-0.035536,-0.427805,0.900541,484068544.298268
0.003924,0.014674,0.106804,0.069862,-0.035237,-0.428545,0.900126,484068544.313671
0.001376,0.020663,0.068843,0.071412,-0.033246,-0.429138,0.899797,484068544.329263
0.010539,0.007060,0.036738,0.073754,-0.030430,-0.429943,0.899324,484068544.329630
0.034260,0.004729,0.013227,0.076348,-0.027911,-0.431030,0.898668,484068544.344792
0.051863,-0.000765,-0.000651,0.078251,-0.026930,-0.432019,0.898060,484068544.361454
0.057380,0.014024,-0.022557,0.079856,-0.027683,-0.432475,0.897676,484068544.361858
0.103461,0.042262,-0.051672,0.081732,-0.030106,-0.431517,0.897890,484068544.376993
0.053070,0.006486,-0.031176,0.083999,-0.032839,-0.429106,0.898740,484068544.392653
-0.046358,0.020634,-0.020236,0.086237,-0.035418,-0.426266,0.899781,484068544.393108
0.001192,0.003599,0.008183,0.088504,-0.036957,-0.423837,0.900646,484068544.407107
0.004420,-0.016955,0.036157,0.090840,-0.037856,-0.421621,0.901416,484068544.423120
-0.024386,-0.009061,0.027328,0.093094,-0.038581,-0.419672,0.902065,484068544.424520
-0.076016,0.016301,0.099353,0.094862,-0.039672,-0.418126,0.902551,484068544.438660
-0.062732,-0.009261,0.098627,0.095523,-0.041095,-0.417654,0.902636,484068544.454500
-0.024156,-0.038865,0.066531,0.095115,-0.044285,-0.417256,0.902712,484068544.454754
-0.029486,0.014103,0.080196,0.093650,-0.049541,-0.416704,0.902847,484068544.470094
-0.003591,0.000102,-0.009667,0.091871,-0.055879,-0.416168,0.902907,484068544.486751
-0.005901,-0.017285,-0.121576,0.091014,-0.062249,-0.415613,0.902833,484068544.487185
-0.035495,-0.012365,-0.128081,0.091701,-0.067359,-0.414984,0.902686,484068544.502258
-0.003141,0.084199,0.066835,0.093250,-0.070592,-0.413960,0.902750,484068544.517952
0.009128,0.108599,0.109379,0.094692,-0.072159,-0.412083,0.903335,484068544.518446
-0.009194,0.096479,0.138840,0.095481,-0.072874,-0.409086,0.904556,484068544.534469
-0.051874,0.079091,0.203779,0.094942,-0.074150,-0.405566,0.906093,484068544.549613
-0.063681,-0.012469,0.108187,0.092828,-0.076818,-0.402740,0.907349,484068544.550100
-0.009282,-0.096662,-0.058231,0.089714,-0.082137,-0.400699,0.908100,484068544.565270
0.056411,-0.109894,-0.205027,0.086994,-0.089533,-0.399360,0.908255,484068544.581085
0.079471,-0.047319,-0.236506,0.085929,-0.097883,-0.397986,0.908098,484068544.581678
0.089781,0.043298,-0.136784,0.086527,-0.105864,-0.396197,0.907928,484068544.596651
0.088281,0.094419,0.031475,0.087682,-0.112319,-0.393706,0.908125,484068544.612195
0.078909,0.125831,0.169307,0.088472,-0.115824,-0.390332,0.909065,484068544.612566
0.048179,0.113574,0.206364,0.088259,-0.116296,-0.386206,0.910786,484068544.628205
-0.053311,-0.016790,0.098110,0.086986,-0.115598,-0.382081,0.912735,484068544.643982
-0.073308,-0.080956,-0.013215,0.085216,-0.115623,-0.378796,0.914267,484068544.644355
-0.084655,-0.083173,-0.051609,0.083290,-0.118256,-0.376564,0.915029,484068544.659785
-0.085212,-0.063944,-0.054191,0.081529,-0.123256,-0.375289,0.915051,484068544.675497
-0.074308,-0.025548,-0.013645,0.080107,-0.129058,-0.374540,0.914684,484068544.675972
-0.032940,0.007055,0.067567,0.079151,-0.134064,-0.373958,0.914285,484068544.691086
-0.012553,0.031642,0.137596,0.078448,-0.137077,-0.373363,0.914142,484068544.707588
0.020592,0.045147,0.143044,0.077425,-0.137989,-0.372465,0.914459,484068544.708006
0.040680,0.049075,0.123890,0.075878,-0.137335,-0.371288,0.915165,484068544.722524
0.023532,0.025368,0.070968,0.074079,-0.135788,-0.369902,0.916104,484068544.738351
0.006655,0.007044,0.034261,0.072264,-0.133819,-0.368464,0.917118,484068544.738724
-0.047595,0.002873,-0.003195,0.070506,-0.131653,-0.367022,0.918146,484068544.754006
-0.058767,-0.013328,-0.034329,0.068909,-0.129833,-0.365652,0.919072,484068544.769757
-0.053512,-0.014879,-0.056538,0.067493,-0.129414,-0.364359,0.919750,484068544.770239
-0.061562,-0.002162,-0.034196,0.066450,-0.129976,-0.363126,0.920234,484068544.786114
-0.079236,-0.024495,-0.057405,0.065078,-0.132063,-0.362146,0.920421,484068544.801407
-0.092794,-0.031655,-0.078242,0.063611,-0.135662,-0.361686,0.920181,484068544.801794
-0.091466,0.017184,-0.022465,0.062383,-0.139377,-0.361524,0.919773,484068544.816972
-0.017977,0.014893,-0.012586,0.061490,-0.141713,-0.361537,0.919471,484068544.832953
0.017298,0.016286,0.002310,0.060849,-0.142786,-0.361258,0.919457,484068544.833359
0.044874,-0.023006,0.039031,0.060488,-0.142176,-0.360964,0.919691,484068544.848385
0.069694,-0.112620,0.149529,0.060500,-0.138623,-0.360597,0.920377,484068544.863949
0.001805,-0.054416,0.147604,0.060175,-0.134183,-0.359639,0.921430,484068544.864326
-0.172259,0.028095,-0.000235,0.058279,-0.133249,-0.358704,0.922052,484068544.879929
-0.156145,-0.003008,-0.121769,0.056653,-0.132484,-0.358745,0.922247,484068544.895701
-0.067829,-0.022133,-0.120925,0.054890,-0.134497,-0.359243,0.921869,484068544.896074
0.007489,-0.026171,-0.122676,0.053554,-0.138184,-0.359668,0.921236,484068544.911367
0.039035,-0.027201,-0.043397,0.053075,-0.141809,-0.359547,0.920760,484068544.927177
0.040426,-0.020894,0.118461,0.052692,-0.144045,-0.359017,0.920642,484068544.927581
-0.004597,-0.043730,0.226688,0.051623,-0.143590,-0.358707,0.920894,484068544.942851
-0.101575,-0.039459,0.243282,0.049743,-0.140650,-0.359171,0.921270,484068544.958762
-0.180908,0.002390,0.197424,0.047093,-0.136130,-0.360817,0.921446,484068544.959181
-0.195771,-0.002942,0.021856,0.043823,-0.131945,-0.363738,0.921067,484068544.974163
-0.105759,-0.013488,-0.113994,0.040912,-0.129153,-0.367020,0.920295,484068544.989913
0.083714,-0.067528,-0.237964,0.038985,-0.128462,-0.369805,0.919359,484068544.990292
0.083179,-0.051394,-0.183902,0.038173,-0.130120,-0.371390,0.918521,484068545.005689
0.070010,-0.017010,-0.114060,0.038485,-0.132523,-0.372214,0.917831,484068545.021542
0.036495,-0.009169,-0.056130,0.039094,-0.135463,-0.372569,0.917231,484068545.021948
-0.044787,0.023210,-0.037475,0.039685,-0.138038,-0.372588,0.916815,484068545.037715
-0.099487,0.042259,-0.038487,0.040457,-0.139173,-0.373036,0.916427,484068545.052764
-0.069649,0.030611,-0.074731,0.040443,-0.139731,-0.373877,0.916000,484068545.053217
0.012039,0.007944,-0.093418,0.041875,-0.139191,-0.374869,0.915612,484068545.068724
0.069103,-0.018891,-0.046396,0.044462,-0.136956,-0.375605,0.915525,484068545.084253
0.069494,-0.042246,0.010608,0.047573,-0.134303,-0.375755,0.915701,484068545.084688
0.031054,-0.039653,0.023851,0.050050,-0.131618,-0.375491,0.916067,484068545.100051
-0.019440,-0.047204,0.010868,0.051745,-0.127949,-0.375007,0.916690,484068545.115910
-0.104778,-0.034268,0.004060,0.054205,-0.121935,-0.374857,0.917429,484068545.116312
-0.143006,-0.005234,-0.131621,0.057763,-0.112491,-0.375334,0.918223,484068545.132065
-0.198772,0.072695,-0.443157,0.063441,-0.101308,-0.376768,0.918563,484068545.147249
-0.116013,0.002959,-0.373488,0.072852,-0.090741,-0.378861,0.918108,484068545.147662
-0.012302,-0.078504,-0.125684,0.084184,-0.082398,-0.380763,0.917139,484068545.163634
0.058581,-0.046597,0.097092,0.095193,-0.076408,-0.381931,0.916094,484068545.178706
0.088409,0.035982,0.152410,0.104383,-0.072792,-0.382229,0.915263,484068545.179085
0.131449,0.056122,0.148466,0.110861,-0.072200,-0.381580,0.914819,484068545.194545
0.143484,0.040049,0.126196,0.114627,-0.074137,-0.379963,0.914873,484068545.210161
0.072681,0.016719,0.157069,0.116466,-0.076419,-0.377899,0.915308,484068545.210577
0.014211,0.002267,0.161576,0.117580,-0.077136,-0.375740,0.915994,484068545.225996
0.090826,0.016805,0.188774,0.118324,-0.076369,-0.373184,0.917007,484068545.241823
0.154231,0.030358,0.287557,0.118101,-0.074550,-0.369822,0.918545,484068545.242187
0.107998,0.050970,0.351873,0.115734,-0.072135,-0.365533,0.920754,484068545.258011
-0.022311,0.045262,0.318557,0.110489,-0.069817,-0.360884,0.923407,484068545.273099
-0.210940,-0.024307,0.245519,0.103196,-0.068323,-0.356628,0.926012,484068545.273501
-0.176454,-0.140399,0.092693,0.096991,-0.065610,-0.352263,0.928547,484068545.288758
-0.100740,0.052152,-0.232527,0.092647,-0.062246,-0.348892,0.930493,484068545.304970
-0.037885,0.051743,-0.298071,0.090422,-0.059095,-0.346344,0.931868,484068545.305343
-0.032739,0.000302,-0.208790,0.090208,-0.056788,-0.343662,0.933024,484068545.320124
-0.049949,-0.020740,-0.075173,0.090681,-0.055636,-0.340841,0.934082,484068545.335983
0.004448,-0.004764,0.032288,0.090876,-0.055620,-0.337484,0.935282,484068545.336463
0.093025,0.059457,0.131564,0.089909,-0.056287,-0.333119,0.936899,484068545.351751
0.108374,0.076992,0.204861,0.086869,-0.056819,-0.327983,0.938963,484068545.368029
0.026048,0.052804,0.161475,0.082115,-0.056658,-0.322361,0.941345,484068545.368474
-0.059271,0.043856,0.107610,0.076824,-0.055041,-0.316888,0.943743,484068545.384026
-0.111482,0.043136,0.038458,0.071998,-0.051170,-0.311850,0.946017,484068545.399077
-0.167459,0.054175,-0.040711,0.067979,-0.045664,-0.307479,0.948024,484068545.399511
-0.207159,0.076368,-0.101622,0.064786,-0.039717,-0.304153,0.949587,484068545.414688
-0.151742,0.093583,-0.202304,0.061981,-0.035226,-0.301826,0.950694,484068545.430534
-0.052561,0.065933,-0.234583,0.059334,-0.033965,-0.299820,0.951543,484068545.430902
0.011794,0.042221,-0.168739,0.057053,-0.035572,-0.297581,0.952326,484068545.446166
0.043964,0.012838,-0.079630,0.054942,-0.039059,-0.294423,0.953295,484068545.462181
0.065071,-0.025286,-0.022216,0.053165,-0.043630,-0.289934,0.954572,484068545.462634
-0.132070,0.181417,0.117650,0.051210,-0.048707,-0.285120,0.955883,484068545.477760
-0.170065,0.191089,0.167846,0.048154,-0.053208,-0.281013,0.957017,484068545.493758
-0.157411,0.144890,0.157732,0.043933,-0.056534,-0.277912,0.957934,484068545.494228
-0.135122,0.108675,0.139527,0.039362,-0.058454,-0.275673,0.958665,484068545.509680
-0.092045,0.083540,0.114544,0.035041,-0.059453,-0.273684,0.959341,484068545.524049
-0.073030,0.067575,0.101283,0.031090,-0.059921,-0.271185,0.960157,484068545.524298
-0.084398,0.033396,0.073269,0.027462,-0.060225,-0.267926,0.961163,484068545.540111
-0.053208,0.011899,0.028415,0.024359,-0.060894,-0.263755,0.962357,484068545.555627
-0.023212,0.039917,0.019153,0.022071,-0.062376,-0.258448,0.963757,484068545.556155
-0.024265,0.077225,0.044950,0.020928,-0.064762,-0.252241,0.965268,484068545.572067
-0.031551,0.134889,0.107411,0.021175,-0.067487,-0.245389,0.966841,484068545.587760
-0.013977,0.183097,0.144787,0.023121,-0.069833,-0.237884,0.968504,484068545.588144
-0.017217,0.257163,0.118198,0.026586,-0.071768,-0.230373,0.970088,484068545.603529
-0.059099,0.251700,0.134727,0.031090,-0.072757,-0.224100,0.971349,484068545.620016
-0.170268,0.205991,0.212139,0.035922,-0.072139,-0.219560,0.972265,484068545.620447
-0.259950,0.200390,0.165927,0.040041,-0.070835,-0.216706,0.972840,484068545.635072
-0.158532,0.213213,0.111213,0.042547,-0.070653,-0.214908,0.973146,484068545.650822
-0.030123,0.177202,0.109993,0.043332,-0.071089,-0.213290,0.973435,484068545.651249
0.052001,0.177205,0.172953,0.043174,-0.070530,-0.211131,0.973953,484068545.666362
0.033416,0.211858,0.218071,0.042993,-0.067785,-0.208130,0.974802,484068545.681703
-0.063533,0.248699,0.226212,0.043360,-0.063502,-0.204868,0.975764,484068545.682072
-0.087937,0.284610,0.243409,0.043998,-0.058996,-0.201875,0.976642,484068545.697957
-0.025615,0.306219,0.260851,0.044041,-0.055079,-0.199216,0.977415,484068545.713580
0.013012,0.384214,0.238608,0.042338,-0.052891,-0.196920,0.978076,484068545.714016
-0.010555,0.394901,0.383602,0.038161,-0.051925,-0.195663,0.978552,484068545.729448
0.008845,0.390334,0.394418,0.031315,-0.050320,-0.195754,0.978860,484068545.745283
0.068809,0.356817,0.319108,0.022105,-0.047752,-0.196799,0.979031,484068545.746051
0.112122,0.284570,0.174140,0.011215,-0.044027,-0.198119,0.979124,484068545.760660
0.082757,0.198041,-0.012320,-0.000548,-0.039679,-0.199426,0.979109,484068545.776487
-0.027887,0.170550,-0.145678,-0.012268,-0.035310,-0.200780,0.978923,484068545.776852
-0.107184,0.155409,-0.227562,-0.023196,-0.030756,-0.202630,0.978497,484068545.792240
-0.097445,0.149008,-0.278828,-0.032796,-0.026101,-0.205602,0.977738,484068545.808182
0.007787,0.159860,-0.326202,-0.040977,-0.022075,-0.209307,0.976742,484068545.808554
0.132956,0.203320,-0.322318,-0.048103,-0.019555,-0.212595,0.975760,484068545.823739
0.175571,0.186999,-0.245182,-0.054957,-0.018812,-0.215117,0.974859,484068545.839733
0.191790,0.144668,0.018662,-0.062784,-0.018797,-0.216852,0.974002,484068545.840185
0.051278,0.087442,-0.052583,-0.072504,-0.018954,-0.218268,0.973007,484068545.855135
-0.016366,0.034589,-0.058169,-0.083789,-0.018524,-0.220102,0.971695,484068545.870986
-0.015642,0.009964,-0.161756,-0.095476,-0.016584,-0.222979,0.969995,484068545.871401
0.031708,0.006535,-0.294262,-0.106576,-0.013522,-0.226886,0.967978,484068545.886489
0.132122,-0.004651,-0.364097,-0.116590,-0.009859,-0.231231,0.965837,484068545.902367
0.192501,-0.019007,-0.377648,-0.125137,-0.005583,-0.235425,0.963787,484068545.902891
0.154945,-0.036756,-0.291875,-0.132304,-0.000243,-0.239301,0.961889,484068545.918084
0.039716,-0.025253,-0.205026,-0.138747,0.005770,-0.243477,0.959914,484068545.934061
0.003108,-0.004004,-0.143399,-0.145272,0.012248,-0.248260,0.957660,484068545.934647
0.047891,-0.041648,-0.153668,-0.152154,0.019215,-0.253378,0.955133,484068545.949550
0.092155,-0.029179,-0.254028,-0.158953,0.026397,-0.258653,0.952437,484068545.965751
0.096468,-0.039769,-0.243278,-0.165102,0.033788,-0.264173,0.949638,484068545.966180
0.073044,-0.048674,-0.294763,-0.170755,0.041419,-0.270022,0.946686,484068545.981355
0.057145,-0.067112,-0.306827,-0.176030,0.049079,-0.276368,0.943518,484068545.996765
0.055047,-0.096608,-0.342136,-0.180538,0.056812,-0.283366,0.940150,484068545.997134
0.112037,-0.099511,-0.342491,-0.184079,0.064370,-0.290468,0.936803,484068546.012450
0.103433,-0.122424,-0.310663,-0.186802,0.071006,-0.297067,0.933710,484068546.028303
0.070868,-0.119866,-0.238859,-0.189362,0.076091,-0.302999,0.930883,484068546.028771
0.077789,-0.102742,-0.188734,-0.192312,0.079784,-0.308183,0.928264,484068546.043903
0.085106,-0.111534,-0.182905,-0.195805,0.082337,-0.312512,0.925860,484068546.059848
0.052369,-0.121422,-0.181477,-0.199525,0.084561,-0.316390,0.923545,484068546.060535
0.024328,-0.146855,-0.201091,-0.203107,0.087157,-0.320356,0.921153,484068546.074715
0.028160,-0.180810,-0.365782,-0.206133,0.089950,-0.324696,0.918689,484068546.091211
0.012663,-0.177335,-0.407770,-0.208000,0.092766,-0.329523,0.916267,484068546.091618
-0.021401,-0.177131,-0.391124,-0.208374,0.095586,-0.334934,0.913927,484068546.107318
-0.016237,-0.164384,-0.319677,-0.207711,0.097906,-0.340631,0.911724,484068546.122644
0.022689,-0.127670,-0.202534,-0.206813,0.099402,-0.346113,0.909699,484068546.123079
0.083734,-0.101743,-0.125166,-0.206366,0.100465,-0.350864,0.907863,484068546.138366
0.069963,-0.095532,-0.083447,-0.206712,0.101076,-0.354783,0.906191,484068546.154219
0.019773,-0.085680,-0.066529,-0.207750,0.101185,-0.358268,0.904569,484068546.154711
-0.025731,-0.055257,-0.065913,-0.209512,0.101007,-0.361837,0.902760,484068546.169733
-0.038240,-0.024424,-0.103289,-0.211829,0.100873,-0.365870,0.900607,484068546.185907
-0.033173,-0.027619,-0.188640,-0.214188,0.100945,-0.370737,0.898046,484068546.186422
0.019446,-0.069563,-0.346794,-0.215887,0.101321,-0.376297,0.895281,484068546.202493
0.076455,-0.101336,-0.359777,-0.216557,0.101918,-0.382233,0.892532,484068546.217114
0.136132,-0.112199,-0.345465,-0.216438,0.102246,-0.388035,0.890016,484068546.217525
0.152711,-0.055356,-0.308598,-0.216128,0.101664,-0.393018,0.887969,484068546.233097
0.089161,0.000699,-0.230105,-0.216184,0.099913,-0.396996,0.886384,484068546.248421
0.042528,0.026688,-0.141168,-0.216891,0.097449,-0.400363,0.884970,484068546.248802
0.054445,0.016974,-0.084015,-0.218302,0.094869,-0.403395,0.883525,484068546.263995
0.067777,-0.028006,-0.061773,-0.220114,0.092560,-0.406126,0.882068,484068546.280112
0.076731,-0.080240,-0.054831,-0.221884,0.090873,-0.408682,0.880618,484068546.280481
0.071199,-0.097034,-0.074747,-0.223334,0.089931,-0.411037,0.879252,484068546.295723
0.020386,-0.086091,-0.101686,-0.224262,0.089588,-0.413358,0.877961,484068546.311220
-0.030721,-0.082093,-0.115809,-0.224580,0.089499,-0.415968,0.876655,484068546.311592
-0.090999,-0.122435,-0.065006,-0.223960,0.089757,-0.418990,0.875348,484068546.327601
-0.103918,-0.111357,-0.002088,-0.222465,0.090437,-0.422209,0.874111,484068546.342675
-0.161436,-0.061133,0.059527,-0.220658,0.091273,-0.425369,0.872949,484068546.343071
-0.233443,-0.026960,0.129097,-0.219152,0.091792,-0.428549,0.871718,484068546.358502
-0.256968,-0.031381,0.202365,-0.218274,0.091945,-0.432124,0.870156,484068546.374479
-0.190445,-0.079879,0.216716,-0.218066,0.092171,-0.436388,0.868054,484068546.374898
-0.088171,-0.146015,0.160217,-0.217920,0.092872,-0.441291,0.865533,484068546.390022
-0.006392,-0.209199,0.088157,-0.216846,0.094206,-0.446654,0.862904,484068546.406370
0.026593,-0.238906,0.059310,-0.214448,0.095936,-0.452220,0.860410,484068546.406745
0.043554,-0.240460,0.079226,-0.211279,0.097457,-0.457524,0.858216,484068546.421443
0.056400,-0.235462,0.101665,-0.208189,0.098290,-0.462010,0.856471,484068546.437205
0.046589,-0.183088,0.123714,-0.205567,0.098298,-0.465307,0.855318,484068546.437804
0.016305,-0.154463,0.133352,-0.203605,0.097306,-0.467513,0.854698,484068546.453473
-0.047014,-0.129431,0.164535,-0.202198,0.095574,-0.468925,0.854453,484068546.468700
-0.086832,-0.104897,0.197415,-0.201265,0.093417,-0.470188,0.854218,484068546.469228
-0.046815,-0.101395,0.221234,-0.200539,0.091487,-0.471913,0.853646,484068546.484448
0.032492,-0.122497,0.191555,-0.199676,0.090537,-0.474422,0.852559,484068546.500458
0.092829,-0.142848,0.142959,-0.198148,0.090933,-0.477617,0.851088,484068546.500954
0.142320,-0.148332,0.118031,-0.195845,0.092538,-0.481218,0.849418,484068546.515154
0.195265,-0.161085,0.098360,-0.192987,0.095213,-0.484812,0.847731,484068546.532195
0.220648,-0.163210,0.043145,-0.189770,0.098753,-0.487952,0.846250,484068546.532653
0.188217,-0.150848,-0.002814,-0.186342,0.102278,-0.490451,0.845147,484068546.548240
0.117477,-0.093811,-0.022177,-0.183049,0.104983,-0.492160,0.844541,484068546.562420
0.068065,0.021227,0.035185,-0.180542,0.106648,-0.493083,0.844334,484068546.562687
0.095049,0.049396,0.017269,-0.178908,0.107791,-0.493378,0.844364,484068546.578249
0.107864,0.055252,-0.024823,-0.177727,0.108978,-0.493186,0.844573,484068546.594039
0.111989,0.059700,-0.045189,-0.176584,0.110258,-0.492682,0.844941,484068546.594273
0.176672,0.074839,-0.029236,-0.175190,0.112104,-0.491896,0.845446,484068546.610240
0.233339,0.054388,-0.023609,-0.173368,0.115339,-0.490839,0.846001,484068546.625814
0.190658,0.013114,-0.024931,-0.171130,0.119839,-0.489482,0.846617,484068546.626304
0.066457,0.030997,-0.001095,-0.168718,0.125234,-0.487895,0.847236,484068546.641768
-0.082715,0.085214,0.035476,-0.166533,0.131049,-0.486244,0.847738,484068546.657404
-0.238587,0.111202,0.033564,-0.165125,0.136398,-0.484919,0.847928,484068546.657884
-0.314595,0.090698,0.021778,-0.164736,0.140835,-0.484097,0.847749,484068546.673267
-0.078487,0.056157,-0.065110,-0.165089,0.144631,-0.483623,0.847311,484068546.689720
0.027326,-0.000111,-0.128088,-0.165525,0.148030,-0.482960,0.847017,484068546.690149
0.051499,-0.022022,-0.151980,-0.165436,0.151032,-0.481866,0.847127,484068546.704513
0.011347,-0.022930,-0.145807,-0.164480,0.153831,-0.480453,0.847613,484068546.720359
-0.093590,-0.013369,-0.113225,-0.163064,0.156082,-0.478884,0.848362,484068546.720731
-0.220494,0.006838,-0.062694,-0.161892,0.157550,-0.477608,0.849034,484068546.735836
-0.279474,0.015234,-0.019809,-0.161375,0.158644,-0.477047,0.849244,484068546.752022
-0.252828,0.003901,-0.048412,-0.161172,0.159679,-0.477259,0.848970,484068546.752433
-0.187594,0.004393,-0.083234,-0.160837,0.160470,-0.478058,0.848435,484068546.767864
-0.144483,0.005465,-0.068359,-0.160137,0.160982,-0.479331,0.847752,484068546.783444
-0.101204,0.007680,0.009592,-0.159126,0.161826,-0.480983,0.846845,484068546.783887
-0.028199,0.004092,0.085795,-0.157928,0.163766,-0.482839,0.845639,484068546.799042
0.114081,-0.015066,0.112944,-0.156602,0.167279,-0.484623,0.844177,484068546.814752
0.128522,-0.038313,0.058712,-0.155240,0.172174,-0.486123,0.842580,484068546.815129
0.097671,-0.052279,-0.037311,-0.153686,0.178075,-0.487308,0.840952,484068546.830893
0.030571,-0.084639,-0.122703,-0.151470,0.184449,-0.488433,0.839326,484068546.846354
-0.040102,-0.057578,-0.126326,-0.148568,0.190625,-0.489551,0.837813,484068546.846762
-0.057536,-0.007690,-0.118158,-0.145267,0.196318,-0.490827,0.836328,484068546.861972
-0.028982,-0.017748,-0.073486,-0.142014,0.201324,-0.491961,0.835030,484068546.877819
0.015170,-0.049427,-0.011983,-0.138862,0.205958,-0.492772,0.833951,484068546.878308
0.057547,-0.049149,0.020388,-0.135970,0.210568,-0.492960,0.833165,484068546.893413
0.111512,-0.025277,0.036452,-0.133042,0.215714,-0.492429,0.832635,484068546.909040
0.109262,-0.037653,0.037480,-0.130007,0.221598,-0.491308,0.832231,484068546.910029
-0.128398,-0.032516,-0.040361,-0.127055,0.227826,-0.490098,0.831719,484068546.924899
-0.192452,-0.035600,-0.098936,-0.124411,0.233840,-0.489417,0.830850,484068546.940649
-0.186210,-0.039461,-0.145557,-0.122162,0.239163,-0.489392,0.829683,484068546.941025
-0.146641,-0.040357,-0.142549,-0.120451,0.243091,-0.489697,0.828610,484068546.956448
-0.078367,-0.009612,-0.056856,-0.119549,0.245455,-0.489837,0.827961,484068546.972131
0.057487,0.008370,0.061983,-0.119396,0.247322,-0.489391,0.827691,484068546.972500
0.173137,0.000415,0.127755,-0.119528,0.250105,-0.488068,0.827617,484068546.987692
0.191978,0.011411,0.117050,-0.119303,0.254783,-0.486426,0.827189,484068547.004120
0.136285,-0.062422,0.069144,-0.117979,0.261852,-0.485070,0.825967,484068547.004477
-0.043958,-0.075273,-0.057944,-0.115479,0.270401,-0.484120,0.824121,484068547.019179
-0.187094,-0.059265,-0.214680,-0.112360,0.278435,-0.484014,0.821937,484068547.035703
-0.221939,-0.058871,-0.238448,-0.108977,0.285027,-0.484612,0.819778,484068547.036497
0.013685,-0.045262,-0.033433,-0.105403,0.290903,-0.485279,0.817783,484068547.050835
0.060450,-0.030524,0.057467,-0.101693,0.296879,-0.485281,0.816103,484068547.065738
0.092994,-0.031133,0.098025,-0.098430,0.302841,-0.484400,0.814835,484068547.066008
0.125445,-0.045387,0.127296,-0.096013,0.308646,-0.482507,0.814068,484068547.081476
0.125419,-0.054815,0.161839,-0.093926,0.315239,-0.479795,0.813387,484068547.097990
0.104331,-0.054800,0.105305,-0.092011,0.323112,-0.476554,0.812422,484068547.098376
-0.002479,-0.024598,-0.011315,-0.090615,0.331229,-0.472888,0.811451,484068547.113679
-0.169500,-0.000251,-0.126222,-0.089983,0.338401,-0.469266,0.810664,484068547.129817
-0.272165,-0.006489,-0.206255,-0.089759,0.344195,-0.466387,0.809911,484068547.130245
-0.218176,-0.033649,-0.212464,-0.089769,0.348717,-0.464261,0.809197,484068547.145054
-0.106374,-0.041129,-0.187621,-0.089686,0.352274,-0.462602,0.808615,484068547.160877
0.043985,-0.003175,0.041212,-0.089263,0.355638,-0.461131,0.808030,484068547.161254
0.086438,0.008445,0.150647,-0.088653,0.359737,-0.459594,0.807158,484068547.176634
0.121763,-0.004278,0.177761,-0.087973,0.365635,-0.457543,0.805746,484068547.192358
0.091533,-0.010713,0.076468,-0.087038,0.373692,-0.455080,0.803543,484068547.192738
0.057004,-0.028899,-0.122814,-0.085648,0.382954,-0.452550,0.800755,484068547.208006
-0.002245,-0.061563,-0.333799,-0.083545,0.391825,-0.449958,0.798142,484068547.223853
-0.094132,-0.060511,-0.411973,-0.080412,0.399084,-0.447528,0.796232,484068547.224242
-0.118715,-0.035963,-0.292259,-0.076519,0.404575,-0.445635,0.794904,484068547.239419
-0.113265,0.003771,-0.051820,-0.072674,0.409438,-0.444018,0.793679,484068547.255334
-0.086924,0.034666,0.115535,-0.069601,0.414609,-0.442273,0.792244,484068547.255799
-0.029115,0.059210,0.210279,-0.067419,0.420602,-0.440160,0.790448,484068547.271292
0.049091,0.051626,0.209092,-0.065940,0.427543,-0.437543,0.788299,484068547.287044
0.037140,-0.017201,-0.102133,-0.064796,0.434895,-0.434668,0.785959,484068547.287468
-0.012853,-0.038966,-0.271942,-0.063074,0.442093,-0.431946,0.783580,484068547.302157
-0.051442,-0.057992,-0.315071,-0.060061,0.448868,-0.429971,0.781048,484068547.318120
-0.071854,-0.045969,-0.209684,-0.056192,0.454906,-0.428703,0.778535,484068547.318487
-0.067621,-0.020953,-0.054943,-0.052572,0.460147,-0.427553,0.776338,484068547.333642
-0.069378,0.015785,0.092304,-0.049574,0.465161,-0.426272,0.774248,484068547.349713
-0.075489,0.070225,0.185767,-0.047589,0.470397,-0.424831,0.771998,484068547.350192
-0.068569,0.093902,0.188844,-0.046586,0.476053,-0.423097,0.769540,484068547.365251
-0.081062,0.096949,0.070435,-0.046011,0.482232,-0.421255,0.766733,484068547.381141
-0.080679,0.038209,-0.100433,-0.045374,0.488189,-0.419641,0.763881,484068547.381565
-0.128002,0.143275,-0.354304,-0.044307,0.492353,-0.418930,0.761658,484068547.396799
-0.067197,0.000042,0.004157,-0.043630,0.496071,-0.417959,0.759816,484068547.412521
-0.027573,0.063694,-0.002538,-0.043351,0.500320,-0.416458,0.757867,484068547.413104
-0.012284,0.046042,-0.000862,-0.043208,0.504782,-0.414828,0.755808,484068547.428521
-0.054430,0.030986,-0.011433,-0.043200,0.509071,-0.413078,0.753888,484068547.444171
-0.063481,0.020532,-0.027936,-0.043323,0.512648,-0.411221,0.752470,484068547.444537
-0.047916,0.032559,0.008611,-0.043519,0.515717,-0.409238,0.751443,484068547.459783
0.039877,0.049735,0.068749,-0.043688,0.519019,-0.407045,0.750350,484068547.475529
0.176435,0.102209,0.155078,-0.043708,0.523543,-0.404464,0.748600,484068547.475894
0.274213,0.102800,0.171928,-0.043411,0.529665,-0.401243,0.746039,484068547.491654
0.286876,0.023318,0.310894,-0.043246,0.537774,-0.397039,0.742488,484068547.506904
0.058552,0.078783,-0.022523,-0.042656,0.546600,-0.393516,0.737939,484068547.507382
-0.037352,-0.050318,-0.287855,-0.041128,0.554090,-0.391307,0.733602,484068547.522820
-0.066418,-0.049536,-0.168245,-0.039483,0.559711,-0.389612,0.730320,484068547.538482
-0.057848,0.011667,-0.041694,-0.038005,0.563971,-0.388081,0.727933,484068547.538896
-0.040503,0.038583,0.053257,-0.036632,0.568013,-0.386735,0.725573,484068547.554004
-0.063703,0.021682,0.021601,-0.035259,0.572365,-0.385662,0.722786,484068547.570106
-0.081105,-0.028745,-0.072380,-0.033866,0.576712,-0.385061,0.719711,484068547.570465
-0.108747,-0.045851,-0.090232,-0.032571,0.580656,-0.384919,0.716669,484068547.585398
-0.128192,-0.068496,-0.097847,-0.031560,0.584065,-0.385071,0.713857,484068547.601517
-0.136203,-0.116424,-0.174162,-0.030948,0.586161,-0.385397,0.711987,484068547.602061
-0.147255,-0.120905,-0.207190,-0.030944,0.586490,-0.385874,0.711459,484068547.616998
-0.088924,-0.129662,-0.157640,-0.031177,0.585688,-0.386117,0.711977,484068547.634130
-0.018476,-0.111663,-0.133154,-0.031244,0.584428,-0.386247,0.712938,484068547.634568
0.004071,-0.083901,-0.013020,-0.031000,0.583094,-0.386590,0.713855,484068547.649185
-0.003600,-0.045079,0.102340,-0.030320,0.582290,-0.387094,0.714267,484068547.663862
-0.009424,-0.054151,0.110711,-0.029288,0.582496,-0.387810,0.713753,484068547.664069
-0.041067,-0.057870,0.063369,-0.027996,0.583408,-0.388652,0.712601,484068547.679354
-0.082730,-0.067840,-0.022761,-0.026508,0.584481,-0.389678,0.711217,484068547.695062
-0.122436,-0.074709,-0.113048,-0.025091,0.584994,-0.391057,0.710090,484068547.695341
-0.120209,-0.054337,-0.142523,-0.024101,0.584251,-0.392796,0.709776,484068547.710999
-0.096221,0.058927,-0.093172,-0.023860,0.582093,-0.394768,0.710462,484068547.726495
-0.020782,0.002785,0.006390,-0.024216,0.579511,-0.396603,0.711538,484068547.726778
0.045536,0.065834,0.027633,-0.024601,0.577727,-0.398242,0.712060,484068547.742167
0.093156,0.039480,0.041733,-0.024769,0.576933,-0.399650,0.711909,484068547.757860
0.054297,0.058632,0.003199,-0.024864,0.576667,-0.400886,0.711426,484068547.758141
-0.101349,0.002415,-0.072713,-0.024794,0.576352,-0.402114,0.710991,484068547.774477
-0.116181,-0.015459,-0.097843,-0.024753,0.575890,-0.403232,0.710733,484068547.790298
-0.112643,-0.024052,-0.078163,-0.024861,0.574986,-0.404422,0.710786,484068547.790783
-0.100049,-0.028486,-0.028849,-0.025031,0.573757,-0.405877,0.710943,484068547.805885
-0.002398,-0.030861,0.058213,-0.025222,0.572459,-0.407510,0.711048,484068547.821572
0.090507,0.008603,0.192212,-0.025249,0.571620,-0.408945,0.710899,484068547.821943
0.069766,0.025576,0.191948,-0.025095,0.571675,-0.410262,0.710101,484068547.837379
0.027514,-0.050723,0.126976,-0.024878,0.572791,-0.411470,0.708508,484068547.853978
-0.112318,-0.088252,0.074965,-0.025029,0.575340,-0.412446,0.705865,484068547.854387
-0.045564,-0.069549,-0.349335,-0.024884,0.576545,-0.414235,0.703837,484068547.869064
-0.038444,-0.134009,-0.196732,-0.025255,0.576112,-0.416079,0.703090,484068547.884463
-0.083928,-0.085740,-0.075259,-0.026021,0.575005,-0.417775,0.702962,484068547.884887
-0.030970,-0.061982,-0.036578,-0.026928,0.573741,-0.419610,0.702868,484068547.900080
-0.021919,-0.069200,-0.033081,-0.027872,0.572303,-0.421299,0.702993,484068547.915991
-0.041859,-0.063229,-0.047326,-0.028972,0.570677,-0.422985,0.703258,484068547.916550
-0.036035,-0.058124,-0.011700,-0.030065,0.569223,-0.424756,0.703324,484068547.931922
0.011814,-0.009983,0.035231,-0.031068,0.568427,-0.426552,0.702837,484068547.947382
0.090983,0.016877,0.027997,-0.032101,0.568102,-0.428204,0.702048,484068547.947914
0.179909,0.022783,0.004042,-0.033068,0.567891,-0.429419,0.701431,484068547.963173
0.180139,0.019548,-0.008977,-0.033743,0.568128,-0.430222,0.700714,484068547.978829
0.093053,0.025842,-0.019568,-0.034018,0.569032,-0.430788,0.699619,484068547.979308
0.005685,0.017389,-0.016541,-0.033996,0.570624,-0.431272,0.698024,484068547.994544
-0.063441,0.015231,-0.062536,-0.033941,0.572418,-0.431819,0.696217,484068548.010195
-0.208401,-0.058676,0.041076,-0.034126,0.574062,-0.432381,0.694503,484068548.010562
-0.191325,0.019379,0.097002,-0.034800,0.576547,-0.433110,0.691952,484068548.026524
0.093518,0.038970,-0.039736,-0.035456,0.579340,-0.433904,0.689083,484068548.041671
0.039069,-0.015874,0.019317,-0.035670,0.581016,-0.434632,0.687199,484068548.042166
-0.067960,0.004485,0.076303,-0.035587,0.583108,-0.435114,0.685124,484068548.057267
-0.135027,-0.004838,0.038280,-0.035284,0.586446,-0.435383,0.682113,484068548.073515
-0.024201,0.029625,-0.108065,-0.035071,0.589740,-0.435673,0.679092,484068548.074087
-0.022293,-0.040440,-0.121861,-0.035515,0.591903,-0.435548,0.677265,484068548.088882
0.023824,-0.011869,-0.137414,-0.036580,0.593050,-0.435127,0.676474,484068548.104969
0.050175,0.010842,-0.144368,-0.038001,0.593435,-0.434520,0.676449,484068548.105359
0.017404,0.014114,-0.096557,-0.039643,0.593608,-0.433868,0.676621,484068548.120583
0.002957,-0.011038,-0.008632,-0.041246,0.594050,-0.433299,0.676502,484068548.136231
-0.026554,-0.000960,-0.018650,-0.042759,0.594736,-0.432967,0.676018,484068548.136608
-0.038575,-0.045991,-0.061973,-0.044480,0.594977,-0.432764,0.675825,484068548.152045
-0.028117,-0.003841,-0.061360,-0.046882,0.594252,-0.432601,0.676404,484068548.167737
0.037181,0.028683,-0.015142,-0.049661,0.593056,-0.432742,0.677165,484068548.168183
0.049518,0.072096,0.029230,-0.052366,0.592309,-0.433303,0.677256,484068548.183297
0.031523,0.055536,0.048645,-0.054736,0.592427,-0.434321,0.676313,484068548.199200
0.016160,0.018069,0.025416,-0.056800,0.593245,-0.435575,0.674617,484068548.199635
0.002636,-0.042256,-0.007412,-0.058588,0.594289,-0.436906,0.672682,484068548.214892
-0.027480,-0.048864,-0.007144,-0.060380,0.595247,-0.438362,0.670726,484068548.230324
-0.032298,-0.034103,0.009461,-0.062047,0.596406,-0.439943,0.668506,484068548.230730
-0.013348,-0.044795,0.020835,-0.063496,0.597632,-0.441444,0.666282,484068548.246139
-0.003712,-0.019589,0.006360,-0.064553,0.599078,-0.442788,0.663986,484068548.262045
-0.058152,-0.018002,-0.004227,-0.065229,0.601102,-0.443840,0.661383,484068548.262419
-0.133049,-0.042063,0.003477,-0.065904,0.603284,-0.444581,0.658827,484068548.277875
-0.134194,-0.026131,-0.057005,-0.067078,0.605457,-0.445145,0.656329,484068548.294061
-0.127611,-0.071412,-0.046133,-0.069039,0.607278,-0.445468,0.654221,484068548.294486
-0.133238,-0.171480,-0.064743,-0.072013,0.609377,-0.445603,0.651853,484068548.308944
-0.310344,-0.237136,0.058848,-0.075923,0.611598,-0.445756,0.649219,484068548.324887
-0.406349,-0.102941,0.020563,-0.081647,0.614261,-0.446907,0.645207,484068548.325426
0.074296,0.034509,0.004938,-0.087705,0.616286,-0.447973,0.641732,484068548.340638
0.160911,-0.123838,0.145477,-0.092927,0.619502,-0.448237,0.637704,484068548.356221
0.322887,-0.170501,-0.018403,-0.097452,0.623376,-0.447320,0.633885,484068548.356586
0.095257,0.002566,0.017792,-0.101704,0.626806,-0.446270,0.630567,484068548.372395
0.032106,0.074459,0.017707,-0.105882,0.630276,-0.445045,0.627277,484068548.388010
0.061703,0.159165,-0.060079,-0.110233,0.633828,-0.443375,0.624123,484068548.388403
0.004706,0.257019,-0.179444,-0.114815,0.636648,-0.441384,0.621834,484068548.403553
-0.033246,0.208547,-0.163230,-0.119909,0.638531,-0.439482,0.620287,484068548.419309
-0.041795,0.163072,-0.146339,-0.125831,0.639780,-0.437314,0.619359,484068548.419717
-0.044263,0.089023,-0.087789,-0.132234,0.640574,-0.434956,0.618864,484068548.434994
-0.002019,0.001682,-0.004084,-0.138397,0.641269,-0.432825,0.618290,484068548.451784
0.012492,-0.008508,0.008375,-0.143478,0.642016,-0.430784,0.617782,484068548.452215
0.040998,0.013597,0.010256,-0.147552,0.642636,-0.429208,0.617275,484068548.466521
0.018288,0.029007,-0.037892,-0.150422,0.643130,-0.428357,0.616658,484068548.482218
-0.012655,-0.004195,-0.045053,-0.150638,0.640859,-0.428476,0.618882,484068548.482580
-0.048473,-0.095766,-0.022519,-0.152616,0.641041,-0.428191,0.618407,484068548.497935
-0.035531,-0.081426,-0.019681,-0.154554,0.641119,-0.427751,0.618150,484068548.514077
-0.019830,-0.065086,-0.005786,-0.156481,0.640986,-0.427343,0.618084,484068548.514515
-0.004045,-0.031648,0.013009,-0.157524,0.641512,-0.426461,0.617883,484068548.529347
0.002360,-0.041797,-0.004087,-0.158597,0.641880,-0.426566,0.617154,484068548.545146
-0.043171,-0.039986,-0.013600,-0.159384,0.642520,-0.426738,0.616165,484068548.545566
-0.090249,-0.075524,-0.005803,-0.160169,0.643476,-0.426759,0.614949,484068548.560810
-0.098210,-0.116979,0.019416,-0.161125,0.644707,-0.426606,0.613513,484068548.576605
-0.121426,-0.056086,-0.000420,-0.162354,0.646095,-0.426333,0.611917,484068548.576988
-0.093247,0.029230,-0.053139,-0.164089,0.647156,-0.426052,0.610527,484068548.592299
0.020040,0.110286,-0.044123,-0.166910,0.647048,-0.427382,0.608945,484068548.608166
0.042520,0.076268,-0.024242,-0.168942,0.648054,-0.427700,0.607089,484068548.608577
0.006536,0.071012,-0.050188,-0.171196,0.649317,-0.428088,0.604831,484068548.624065
-0.003484,0.020959,-0.072787,-0.173462,0.650401,-0.428826,0.602493,484068548.639622
-0.039578,-0.004707,-0.024214,-0.176045,0.650879,-0.430242,0.600214,484068548.639996
-0.029277,-0.004234,-0.040154,-0.178260,0.651668,-0.431504,0.597793,484068548.655443
-0.072461,0.073125,-0.059478,-0.180717,0.652328,-0.432879,0.595336,484068548.670845
-0.104275,0.118215,-0.041100,-0.184180,0.652731,-0.434427,0.592699,484068548.671297
-0.091951,0.052673,-0.044836,-0.189106,0.652391,-0.437408,0.589321,484068548.686593
0.047825,0.067463,-0.056078,-0.193043,0.652459,-0.439854,0.586140,484068548.703667
0.016034,0.005477,-0.050075,-0.196510,0.652427,-0.442451,0.583061,484068548.704119
0.039018,-0.016372,-0.025429,-0.199344,0.652467,-0.445019,0.580093,484068548.718252
0.049625,-0.005292,-0.090807,-0.201599,0.652063,-0.447392,0.577937,484068548.734234
0.009262,-0.021922,-0.040062,-0.203792,0.651424,-0.449644,0.576138,484068548.734622
0.005270,-0.013198,-0.045678,-0.206125,0.650725,-0.451911,0.574322,484068548.749609
0.022502,0.024459,-0.077218,-0.208295,0.649653,-0.454435,0.572759,484068548.765440
0.032231,0.044358,-0.042054,-0.210429,0.648768,-0.456724,0.571160,484068548.765809
0.041000,0.076360,-0.007507,-0.212308,0.647949,-0.458857,0.569683,484068548.780999
-0.002850,0.081298,0.010244,-0.214127,0.647200,-0.460848,0.568243,484068548.796993
-0.042888,0.093387,-0.021978,-0.217081,0.645996,-0.463538,0.566302,484068548.797623
-0.062552,0.083902,-0.008513,-0.219647,0.645232,-0.465459,0.564606,484068548.812542
-0.043763,0.076344,-0.006200,-0.222542,0.644590,-0.467379,0.562615,484068548.828440
-0.059454,0.073806,0.001927,-0.225787,0.643996,-0.469382,0.560330,484068548.828818
0.004822,0.056115,-0.026143,-0.229171,0.643379,-0.471428,0.557942,484068548.844083
0.045016,0.011083,-0.011727,-0.232913,0.642682,-0.472978,0.555880,484068548.859970
0.053951,-0.013634,-0.007238,-0.236740,0.642013,-0.474100,0.554078,484068548.860389
0.055761,-0.006567,0.033398,-0.239947,0.641873,-0.474888,0.552183,484068548.876556
0.072277,0.012975,-0.020507,-0.241593,0.642039,-0.476079,0.550244,484068548.891360
0.045794,0.080720,0.009650,-0.242483,0.642200,-0.476582,0.549227,484068548.891738
0.064322,0.136560,0.003786,-0.242923,0.642540,-0.476271,0.548905,484068548.906905
0.071817,0.159062,-0.032940,-0.243177,0.643001,-0.475494,0.548926,484068548.922735
0.083235,0.129534,-0.053336,-0.243451,0.643613,-0.474403,0.549031,484068548.923252
0.078735,0.090902,-0.044233,-0.243504,0.644597,-0.473164,0.548923,484068548.938540
0.058869,0.085722,-0.035639,-0.242848,0.645865,-0.472031,0.548698,484068548.954556
0.049958,0.112515,-0.013493,-0.241398,0.647250,-0.470923,0.548659,484068548.954782
0.086566,0.126952,0.012968,-0.239114,0.648820,-0.469651,0.548895,484068548.970089
-0.067360,-0.092087,0.012009,-0.236299,0.650325,-0.468378,0.549420,484068548.985756
-0.204569,-0.196270,-0.034275,-0.233511,0.651374,-0.468845,0.548971,484068548.986136
-0.112119,-0.186821,0.022141,-0.229955,0.652472,-0.472858,0.545716,484068549.001420
-0.035519,-0.125248,0.042137,-0.224522,0.654306,-0.480215,0.539320,484068549.017234
0.002153,-0.084107,0.021347,-0.218653,0.656265,-0.488459,0.531898,484068549.017857
0.015339,-0.029007,-0.010122,-0.214132,0.657269,-0.495369,0.526075,484068549.032648
-0.063655,0.046336,0.001556,-0.212184,0.657150,-0.499909,0.522708,484068549.049189
-0.099676,0.066758,0.040843,-0.212071,0.656973,-0.502088,0.520884,484068549.049851
-0.081227,0.035442,0.037902,-0.214950,0.658056,-0.503930,0.516540,484068549.063606
-0.036945,0.047176,0.001445,-0.215157,0.659281,-0.504927,0.513911,484068549.080267
-0.045716,0.053686,-0.015833,-0.214426,0.660168,-0.506259,0.511762,484068549.080684
-0.116444,0.013456,0.055803,-0.215473,0.661348,-0.508473,0.507588,484068549.096019
-0.156489,0.022495,0.094717,-0.212589,0.662469,-0.509708,0.506101,484068549.111514
-0.152315,0.030418,0.101018,-0.209175,0.663630,-0.511891,0.503794,484068549.111903
-0.094612,0.013100,0.069747,-0.205545,0.664542,-0.515158,0.500747,484068549.127557
-0.077622,-0.007911,0.041428,-0.020030,0.694656,-0.631948,0.343066,484068549.142897
-0.105806,0.018808,0.058687,-0.018751,0.693796,-0.634960,0.339296,484068549.143273
-0.101199,-0.005772,0.085222,-0.017920,0.693394,-0.637369,0.335626,484068549.158740
-0.050734,0.053381,0.041900,0.068637,0.690515,-0.674273,0.252653,484068549.174383
-0.115694,0.124000,-0.059376,0.070434,0.690496,-0.674855,0.250650,484068549.174754
-0.193976,0.095799,-0.058254,0.113559,0.684918,-0.689100,0.207684,484068549.190469
-0.224848,0.101312,-0.038000,0.114091,0.685239,-0.689113,0.206285,484068549.205877
-0.184683,0.069790,0.014377,0.114396,0.685975,-0.688809,0.204681,484068549.206304
-0.127848,0.040590,-0.028401,0.137438,0.682719,-0.696283,0.173767,484068549.221617
-0.085694,0.037274,-0.017306,0.137608,0.682958,-0.696560,0.171571,484068549.237702
-0.065835,0.029031,0.008734,0.137733,0.682684,-0.697478,0.168807,484068549.238155
-0.039934,0.007712,0.008044,0.155741,0.678494,-0.702827,0.146372,484068549.252667
-0.031999,-0.022752,-0.018761,0.170126,0.674792,-0.706548,0.128462,484068549.269000
-0.046446,-0.062973,-0.036045,0.171928,0.674424,-0.707278,0.123899,484068549.269377
-0.054147,-0.033699,-0.054162,0.173946,0.673931,-0.708042,0.119316,484068549.284881
-0.043951,-0.019151,-0.007920,0.186210,0.670592,-0.710532,0.103810,484068549.300738
-0.048178,-0.011643,-0.020262,0.188737,0.669765,-0.711389,0.098590,484068549.301127
-0.057065,0.020230,-0.002088,0.199753,0.666361,-0.713340,0.084898,484068549.316376
-0.089669,0.060684,-0.045680,0.202911,0.665079,-0.714173,0.080339,484068549.331850
-0.103296,0.006411,-0.054467,0.206247,0.663626,-0.715090,0.075560,484068549.332268
-0.101363,-0.018614,-0.099506,0.216331,0.659307,-0.717348,0.062668,484068549.347453
-0.083112,-0.021873,-0.095464,0.219217,0.656596,-0.719486,0.056258,484068549.363195
-0.033814,0.006322,-0.102489,0.221709,0.653757,-0.721820,0.049225,484068549.363559
-0.042082,0.003524,-0.078788,0.229779,0.649308,-0.724099,0.035799,484068549.378987
-0.091661,0.002296,-0.034898,0.236935,0.645182,-0.726008,0.022687,484068549.394576
-0.087195,0.025324,-0.027443,0.239471,0.642676,-0.727616,0.014009,484068549.394985
-0.077623,0.037147,0.001354,0.242069,0.640064,-0.729180,0.004272,484068549.410463
-0.008230,0.047830,0.006174,0.249176,0.635725,-0.730518,-0.010361,484068549.426143
0.022668,0.058105,0.019572,0.252201,0.632936,-0.731702,-0.019963,484068549.426512
0.013559,-0.005850,-0.074003,0.254351,0.629641,-0.733501,-0.028878,484068549.441792
-0.064609,-0.430700,-0.091814,0.260394,0.625353,-0.734427,-0.041786,484068549.458124
0.254204,0.245155,-0.285634,0.265419,0.626875,-0.730937,-0.048075,484068549.458609
0.068690,0.422599,-0.608412,0.272357,0.625520,-0.729047,-0.055111,484068549.474387
0.025413,0.209623,-0.109050,0.277209,0.622747,-0.729136,-0.060841,484068549.489246
0.105560,0.044000,0.073353,0.282985,0.619393,-0.729165,-0.067756,484068549.489655
0.100171,0.004759,0.042042,0.291670,0.614916,-0.728522,-0.077857,484068549.504024
0.054380,-0.095034,0.035805,0.297457,0.611675,-0.728070,-0.085366,484068549.519935
0.049408,-0.128311,0.027629,0.302924,0.608540,-0.727435,-0.093562,484068549.520334
0.063726,-0.136442,0.022110,0.310517,0.604258,-0.726241,-0.105003,484068549.536926
0.068284,-0.166459,0.002788,0.317502,0.600396,-0.724741,-0.116050,484068549.551924
0.011274,-0.214235,-0.024842,0.322880,0.597858,-0.722851,-0.125702,484068549.552300
-0.019222,-0.217072,-0.080107,0.328031,0.595808,-0.720393,-0.135799,484068549.567522
-0.007598,-0.224135,-0.095316,0.333857,0.593154,-0.717624,-0.147387,484068549.583340
0.001869,-0.243647,0.019193,0.337796,0.591504,-0.714987,-0.157513,484068549.583889
0.015946,-0.254306,-0.012139,0.341294,0.589663,-0.712362,-0.168395,484068549.599181
0.014808,-0.257259,-0.050356,0.345571,0.586865,-0.709398,-0.181449,484068549.614663
0.008470,-0.270083,-0.075723,0.347838,0.584973,-0.706832,-0.192881,484068549.615039
-0.020444,-0.275455,-0.077103,0.350177,0.583265,-0.703738,-0.204770,484068549.630367
-0.059402,-0.286449,-0.076715,0.350522,0.583251,-0.700648,-0.214582,484068549.646447
-0.059440,-0.262288,-0.110599,0.350137,0.583709,-0.697252,-0.224783,484068549.646849
-0.064356,-0.203520,-0.125660,0.349443,0.584073,-0.693125,-0.237331,484068549.661953
-0.036704,-0.192838,-0.087163,0.346394,0.585645,-0.688654,-0.250571,484068549.678060
-0.013324,-0.241308,-0.030842,0.342702,0.587651,-0.683152,-0.265565,484068549.678445
0.021553,-0.324709,0.022726,0.340258,0.589253,-0.676036,-0.282808,484068549.693412
0.131893,-0.410088,0.092262,0.336886,0.591870,-0.668394,-0.299076,484068549.709253
0.246323,-0.413256,0.124937,0.334072,0.594713,-0.659873,-0.315088,484068549.709677
0.537942,-0.310304,0.117839,0.332552,0.597407,-0.650891,-0.329932,484068549.725091
0.631237,-0.198301,0.063416,0.332419,0.599983,-0.642533,-0.341570,484068549.740602
0.660920,0.077380,0.013203,0.332288,0.603300,-0.635743,-0.348489,484068549.741329
0.596143,0.693026,-0.100004,0.330647,0.608229,-0.630759,-0.350532,484068549.756167
0.240895,1.487606,-0.050516,0.326076,0.614774,-0.626756,-0.350577,484068549.771311
-0.096085,1.659474,-0.122024,0.318344,0.622154,-0.622128,-0.352900,484068549.771564
-0.110414,0.874426,-0.212856,0.309175,0.628146,-0.617310,-0.358849,484068549.788587
0.039757,-0.028838,-0.260645,0.301398,0.630596,-0.614670,-0.365635,484068549.802788
-0.089180,-0.248916,-0.053176,0.295602,0.630493,-0.614028,-0.371576,484068549.803011
-0.326085,-0.138241,0.285278,0.291765,0.630326,-0.613030,-0.376507,484068549.818555
-0.317765,-0.115941,0.209772,0.289735,0.631228,-0.610829,-0.380122,484068549.834200
-0.314414,0.009750,0.142962,0.288883,0.633008,-0.608062,-0.382242,484068549.835553
-0.230927,0.098327,0.097548,0.289037,0.634919,-0.605269,-0.383386,484068549.850990
-0.063808,0.127100,0.093904,0.290926,0.635947,-0.602793,-0.384154,484068549.866717
0.060216,0.111261,0.135594,0.295735,0.634969,-0.600525,-0.385649,484068549.869888
0.094508,0.048162,0.163602,0.301945,0.632784,-0.597825,-0.388611,484068549.882174
0.168660,0.035404,0.213722,0.309129,0.630119,-0.594363,-0.392583,484068549.898267
0.147727,0.079909,0.165257,0.317213,0.627198,-0.590332,-0.396872,484068549.899093
0.122398,0.099367,0.079385,0.325730,0.623978,-0.586056,-0.401360,484068549.913900
0.070713,0.114797,0.059451,0.334425,0.620508,-0.581657,-0.405962,484068549.929478
0.040566,0.088541,0.087628,0.343115,0.617004,-0.577188,-0.410405,484068549.930128
0.029663,0.015923,0.124428,0.351471,0.613809,-0.572802,-0.414251,484068549.945098
0.021532,-0.025540,0.182064,0.359369,0.611062,-0.568536,-0.417402,484068549.960948
-0.019255,-0.029937,0.193672,0.366998,0.608722,-0.564226,-0.420023,484068549.961556
-0.022957,-0.045904,0.175363,0.374043,0.606937,-0.559981,-0.422067,484068549.977011
-0.057031,-0.038307,0.169083,0.380745,0.605430,-0.555741,-0.423839,484068549.992445
-0.075417,-0.032972,0.155209,0.387482,0.603770,-0.551153,-0.426087,484068549.992813
-0.073334,-0.028538,0.113535,0.394487,0.601930,-0.545987,-0.428904,484068550.007989
-0.063647,-0.013223,0.048224,0.401420,0.599923,-0.540590,-0.432107,484068550.023880
-0.044712,-0.010875,0.040925,0.408080,0.597475,-0.535421,-0.435682,484068550.024406
-0.034270,-0.002283,0.087018,0.414646,0.594429,-0.530375,-0.439800,484068550.039186
-0.037929,0.027838,0.147410,0.421504,0.590984,-0.524931,-0.444432,484068550.055466
-0.002481,0.074238,0.116708,0.428658,0.587376,-0.518927,-0.449396,484068550.055904
0.015684,0.070280,0.073713,0.435858,0.583616,-0.512823,-0.454349,484068550.071135
0.023606,0.060533,0.058755,0.442680,0.579797,-0.507082,-0.459061,484068550.086847
0.018846,0.030168,0.087111,0.448947,0.576003,-0.501861,-0.463467,484068550.087265
0.008548,0.007884,0.124037,0.454957,0.572096,-0.496784,-0.467895,484068550.102537
0.004189,-0.006051,0.129658,0.460960,0.568000,-0.491577,-0.472487,484068550.118606
0.026232,-0.005737,0.124427,0.466865,0.563887,-0.486327,-0.477027,484068550.119164
0.057788,-0.013911,0.140444,0.472270,0.559677,-0.481309,-0.481732,484068550.134271
0.090484,-0.000427,0.126044,0.477496,0.555676,-0.476371,-0.486099,484068550.149787
0.133829,0.009590,0.082262,0.482285,0.552170,-0.471759,-0.489850,484068550.150234
0.166581,0.029840,0.059904,0.486744,0.549190,-0.467516,-0.492848,484068550.165419
0.188980,0.051123,0.041311,0.491072,0.546466,-0.463492,-0.495376,484068550.181279
0.204937,0.063068,0.008641,0.495524,0.543669,-0.459534,-0.497703,484068550.181810
0.185208,0.060717,-0.014011,0.500125,0.540567,-0.455597,-0.500094,484068550.196946
0.163523,0.034696,-0.020809,0.504710,0.537181,-0.451725,-0.502643,484068550.212579
0.134579,0.007308,-0.012233,0.509168,0.533543,-0.447962,-0.505381,484068550.212998
0.110754,0.001447,0.014109,0.513391,0.529845,-0.444255,-0.508263,484068550.228123
0.078969,-0.008636,0.024427,0.517403,0.526275,-0.440471,-0.511189,484068550.244584
0.092184,0.001102,0.032715,0.521082,0.523077,-0.436708,-0.513956,484068550.245011
0.092248,0.015245,0.030738,0.524642,0.520141,-0.432904,-0.516525,484068550.260811
0.100325,0.025706,0.008251,0.528029,0.517386,-0.429145,-0.518971,484068550.275882
0.099853,0.013475,-0.018988,0.531272,0.514650,-0.425425,-0.521439,484068550.276331
0.097981,-0.012413,-0.047435,0.534307,0.511955,-0.421729,-0.523987,484068550.291277
0.097866,-0.059053,-0.065304,0.537235,0.509235,-0.418094,-0.526551,484068550.306980
0.105947,-0.078236,-0.060620,0.539952,0.506737,-0.414559,-0.528971,484068550.307352
0.129857,-0.080806,-0.048004,0.542499,0.504601,-0.411112,-0.531093,484068550.322977
0.144676,-0.075681,-0.032895,0.546031,0.501507,-0.406671,-0.533817,484068550.338547
0.132183,-0.062520,-0.029118,0.548534,0.499696,-0.403337,-0.535476,484068550.338920
0.110350,-0.053356,-0.030851,0.552025,0.496970,-0.399022,-0.537653,484068550.354251
0.083586,-0.032760,-0.035744,0.554764,0.495320,-0.395527,-0.538938,484068550.370174
0.044081,-0.021223,-0.062569,0.557709,0.493572,-0.391603,-0.540365,484068550.370598
0.021550,-0.031281,-0.105712,0.561324,0.490792,-0.386606,-0.542747,484068550.385576
0.011899,-0.027847,-0.133069,0.563868,0.488538,-0.382508,-0.545042,484068550.401326
0.028311,-0.017366,-0.130354,0.566109,0.486222,-0.378509,-0.547576,484068550.401930
0.060178,-0.010795,-0.092718,0.568690,0.483355,-0.373906,-0.550594,484068550.417037
0.115055,-0.006282,0.006469,0.571023,0.480944,-0.369603,-0.553191,484068550.432806
0.147215,-0.005291,0.020755,0.573024,0.479336,-0.365781,-0.555054,484068550.433171
0.177170,-0.009404,0.029253,0.575015,0.478128,-0.362110,-0.556441,484068550.448597
0.201970,-0.014338,0.017710,0.576902,0.477262,-0.358608,-0.557499,484068550.464385
0.217548,-0.003560,0.013602,0.578714,0.476572,-0.355398,-0.558266,484068550.464807
0.231592,0.030174,0.005360,0.580525,0.475964,-0.352335,-0.558846,484068550.480279
0.241150,0.073519,-0.011269,0.582468,0.475335,-0.349175,-0.559343,484068550.496161
0.241365,0.098216,-0.045754,0.584440,0.474704,-0.345980,-0.559807,484068550.496691
0.245934,0.117067,-0.086700,0.586433,0.473807,-0.342599,-0.560561,484068550.511359
0.245501,0.099289,-0.123870,0.588610,0.472062,-0.338802,-0.562058,484068550.527172
0.224539,0.108048,-0.154302,0.591057,0.469380,-0.334572,-0.564265,484068550.527542
0.163838,0.177098,-0.190858,0.593501,0.466424,-0.330382,-0.566616,484068550.543088
0.198919,0.195393,-0.139532,0.595691,0.463659,-0.326682,-0.568728,484068550.558550
0.254837,0.223765,-0.070160,0.597611,0.460980,-0.323467,-0.570726,484068550.558924
0.301794,0.237480,-0.030888,0.599415,0.458160,-0.320743,-0.572639,484068550.574578
0.333497,0.233388,-0.027779,0.601287,0.454956,-0.318381,-0.574545,484068550.590175
0.320574,0.212040,-0.032394,0.603432,0.450988,-0.316165,-0.576645,484068550.590657
0.246466,0.220481,-0.039697,0.605911,0.446137,-0.313890,-0.579056,484068550.605853
0.136559,0.236254,-0.070789,0.608478,0.440762,-0.311477,-0.581778,484068550.622025
0.053389,0.214057,-0.109485,0.610949,0.434810,-0.308870,-0.585048,484068550.622448
0.016794,0.172963,-0.156930,0.613117,0.428024,-0.306192,-0.589177,484068550.637107
-0.040960,0.137968,-0.199339,0.614641,0.420345,-0.303392,-0.594542,484068550.652892
-0.104341,0.121016,-0.134061,0.615594,0.411608,-0.299833,-0.601435,484068550.653277
-0.162228,-0.015630,-0.000542,0.616372,0.401768,-0.295472,-0.609396,484068550.668747
-0.215018,-0.031459,0.046094,0.617231,0.391056,-0.290530,-0.617814,484068550.684505
-0.259259,-0.044420,0.036310,0.618346,0.379689,-0.285302,-0.626169,484068550.684873
-0.278984,-0.036807,0.038712,0.619681,0.368149,-0.280246,-0.633975,484068550.700145
-0.293471,0.056495,0.033406,0.621108,0.356951,-0.275614,-0.640974,484068550.716340
-0.294309,0.138667,0.027296,0.622417,0.346760,-0.271431,-0.647054,484068550.716785
-0.226522,0.164429,0.018878,0.623414,0.338001,-0.267829,-0.652210,484068550.731776
-0.155509,0.177724,-0.038226,0.624014,0.330380,-0.264975,-0.656692,484068550.747708
-0.104485,0.176777,-0.135748,0.623882,0.323541,-0.262821,-0.661073,484068550.748084
-0.137891,0.221746,-0.191986,0.622721,0.317197,-0.260589,-0.666106,484068550.763282
-0.225270,0.284451,-0.208500,0.619959,0.311790,-0.257874,-0.672264,484068550.778833
-0.321323,0.139876,-0.108879,0.615364,0.307171,-0.254448,-0.679875,484068550.779213
-0.319071,0.093757,0.000745,0.609140,0.302952,-0.250827,-0.688662,484068550.794608
-0.345958,0.053148,0.110637,0.601916,0.298892,-0.247421,-0.697957,484068550.809668
-0.378276,-0.034785,0.125975,0.594917,0.294362,-0.243884,-0.707068,484068550.810034
-0.414128,-0.120403,0.077572,0.588682,0.289045,-0.240721,-0.715514,484068550.826030
-0.414341,-0.152380,0.074525,0.584139,0.282978,-0.238611,-0.722337,484068550.841325
-0.364582,-0.098170,0.037763,0.580402,0.277102,-0.237553,-0.727954,484068550.842646
-0.213793,-0.093660,0.144550,0.576382,0.271303,-0.236718,-0.733582,484068550.856831
-0.165091,-0.138715,0.197939,0.572222,0.265366,-0.235635,-0.739337,484068550.872765
-0.066782,-0.167580,0.314364,0.568778,0.259641,-0.234179,-0.744472,484068550.873060
0.002735,-0.120329,0.330114,0.566661,0.253649,-0.232317,-0.748723,484068550.889111
-0.018527,-0.090735,0.228827,0.565144,0.247899,-0.230605,-0.752316,484068550.904757
-0.126502,-0.119925,0.048455,0.563515,0.243016,-0.229498,-0.755464,484068550.905129
-0.193715,-0.142740,0.021154,0.561401,0.239154,-0.229014,-0.758411,484068550.920683
-0.243213,-0.157137,0.032778,0.558529,0.236325,-0.229037,-0.761405,484068550.936336
-0.276521,-0.169178,0.088542,0.554918,0.234258,-0.229213,-0.764625,484068550.936923
-0.260741,-0.170677,0.175662,0.550981,0.232791,-0.229034,-0.767966,484068550.952561
-0.214986,-0.166830,0.228293,0.547262,0.231806,-0.228384,-0.771110,484068550.967944
-0.123099,-0.186937,0.242681,0.544093,0.231286,-0.227288,-0.773828,484068550.968323
-0.080115,-0.225339,0.228656,0.541468,0.231263,-0.225995,-0.776051,484068550.983842
0.045833,-0.239469,0.249856,0.539658,0.231662,-0.224949,-0.777496,484068550.998959
0.085788,-0.254372,0.277482,0.538860,0.232045,-0.223719,-0.778289,484068550.999321
0.112600,-0.246550,0.291473,0.539165,0.232242,-0.221916,-0.778536,484068551.014833
0.184656,-0.148936,0.213008,0.540468,0.232191,-0.219809,-0.778246,484068551.030678
0.223755,-0.106849,0.089597,0.542479,0.232100,-0.217783,-0.777443,484068551.031061
0.234847,-0.054203,0.001259,0.544900,0.231973,-0.216064,-0.776266,484068551.046483
0.248533,-0.017533,-0.083042,0.547314,0.231300,-0.214502,-0.775201,484068551.061804
0.257291,0.010008,-0.109313,0.549495,0.229829,-0.213183,-0.774459,484068551.062256
0.255164,0.020932,-0.072725,0.551673,0.227592,-0.212052,-0.773882,484068551.077340
0.262345,0.010715,-0.041844,0.554145,0.224620,-0.210970,-0.773279,484068551.093924
0.218312,-0.010741,-0.006346,0.556943,0.221044,-0.209653,-0.772657,484068551.094990
0.162827,-0.025449,-0.020829,0.559860,0.217270,-0.208190,-0.772015,484068551.109310
0.114128,-0.016553,-0.079375,0.562590,0.213768,-0.206916,-0.771350,484068551.125307
0.106874,-0.016191,-0.148942,0.564840,0.210690,-0.206059,-0.770782,484068551.125921
0.097722,-0.024533,-0.168541,0.566688,0.208201,-0.205628,-0.770217,484068551.140509
0.098650,-0.034601,-0.175659,0.568375,0.206464,-0.205509,-0.769473,484068551.156376
0.105759,-0.009158,-0.187495,0.569851,0.205749,-0.205681,-0.768526,484068551.156751
0.121191,0.026943,-0.216867,0.571013,0.205919,-0.206032,-0.767523,484068551.172464
0.120947,0.025327,-0.196918,0.571747,0.206542,-0.206440,-0.766700,484068551.187959
0.087588,0.037639,-0.191315,0.571981,0.207385,-0.206862,-0.766184,484068551.188455
0.046168,0.054005,-0.117810,0.571594,0.208646,-0.207579,-0.765936,484068551.204032
-0.000588,0.071629,-0.049985,0.571075,0.209882,-0.208245,-0.765805,484068551.219359
-0.027781,0.068140,-0.076532,0.570452,0.211023,-0.208900,-0.765777,484068551.219876
-0.027672,0.088255,-0.164957,0.569559,0.211971,-0.209758,-0.765946,484068551.235100
0.014080,0.089078,-0.243668,0.568303,0.212664,-0.210824,-0.766393,484068551.250829
0.054967,0.042703,-0.244882,0.566959,0.212908,-0.211847,-0.767039,484068551.251201
0.054721,-0.079808,-0.123457,0.566034,0.212722,-0.212331,-0.767640,484068551.266474
0.015672,-0.088770,-0.133676,0.565826,0.212446,-0.212043,-0.767949,484068551.282184
-0.045394,-0.057739,-0.140252,0.566258,0.212531,-0.211348,-0.767798,484068551.282563
-0.144053,0.043477,-0.103372,0.567144,0.213436,-0.210531,-0.767118,484068551.298272
-0.246245,0.200717,-0.049507,0.568527,0.215358,-0.209561,-0.765821,484068551.313839
-0.316550,0.293015,-0.023943,0.570442,0.218029,-0.208177,-0.764017,484068551.314246
-0.351760,0.277155,-0.031291,0.572640,0.220676,-0.206162,-0.762156,484068551.329379
-0.376896,0.236227,-0.011726,0.575141,0.222443,-0.202969,-0.760615,484068551.346026
-0.358189,0.247488,0.059557,0.578102,0.223194,-0.198501,-0.759329,484068551.346424
-0.257546,0.311992,0.064548,0.581545,0.223443,-0.193671,-0.757873,484068551.360741
-0.186273,0.366841,0.037779,0.585358,0.223240,-0.189176,-0.756130,484068551.376691
-0.169679,0.376706,-0.073219,0.589198,0.222525,-0.185476,-0.754273,484068551.377109
-0.018702,0.162714,-0.489047,0.591928,0.220442,-0.182796,-0.753401,484068551.392295
0.011534,-0.060463,-0.203407,0.593002,0.216255,-0.180687,-0.754277,484068551.408199
-0.074142,-0.325783,0.213656,0.593596,0.210518,-0.177978,-0.756075,484068551.408566
-0.156259,-0.529286,0.490609,0.595041,0.204477,-0.174371,-0.757436,484068551.424120
-0.248608,-0.605914,0.647325,0.597603,0.198436,-0.169602,-0.758109,484068551.439781
-0.386867,-0.555701,0.732348,0.601033,0.192742,-0.163192,-0.758273,484068551.440244
-0.484283,-0.424119,0.664084,0.605245,0.188435,-0.155834,-0.757553,484068551.455410
-0.510465,-0.255855,0.423658,0.610098,0.186960,-0.149200,-0.755358,484068551.471115
-0.520083,-0.084564,0.103562,0.614949,0.189934,-0.144908,-0.751508,484068551.471492
-0.415499,0.040333,-0.048934,0.619063,0.195664,-0.142346,-0.747137,484068551.486770
-0.226851,0.129068,-0.039185,0.622065,0.200320,-0.139614,-0.743918,484068551.502351
0.049878,0.159947,0.321439,0.624258,0.201743,-0.135141,-0.742522,484068551.502829
0.075945,0.128584,0.394868,0.626880,0.199744,-0.128817,-0.741977,484068551.518477
0.049934,0.079633,0.298121,0.630583,0.195575,-0.121616,-0.741164,484068551.534419
0.012190,-0.015116,0.218320,0.635195,0.191171,-0.115076,-0.739417,484068551.534843
-0.091363,-0.101330,0.115326,0.640647,0.187425,-0.109832,-0.736465,484068551.549753
-0.215454,-0.121064,0.031535,0.646518,0.184757,-0.105644,-0.732611,484068551.565918
-0.271257,-0.126853,-0.023003,0.652264,0.183098,-0.101894,-0.728454,484068551.566311
-0.254751,-0.122170,-0.040857,0.657513,0.182156,-0.098305,-0.724453,484068551.581254
-0.209632,-0.090705,0.007058,0.662063,0.181419,-0.094670,-0.720969,484068551.597223
-0.138839,-0.061101,0.077237,0.665874,0.180224,-0.090733,-0.718260,484068551.597592
-0.075681,-0.008008,0.137047,0.669097,0.178320,-0.086509,-0.716260,484068551.612615
-0.042895,0.034267,0.184332,0.672126,0.175790,-0.081834,-0.714596,484068551.628477
0.032016,0.035590,0.138123,0.675195,0.173285,-0.077233,-0.712825,484068551.628891
0.060601,0.024104,0.095865,0.678520,0.170769,-0.072904,-0.710728,484068551.644382
0.070013,0.011614,0.033757,0.682091,0.168371,-0.068994,-0.708268,484068551.660061
0.077560,-0.015738,-0.006491,0.685640,0.166282,-0.065451,-0.705666,484068551.660438
0.058408,-0.040512,-0.059699,0.688932,0.164552,-0.062258,-0.703150,484068551.675361
0.038871,-0.041537,-0.059380,0.691753,0.163451,-0.059631,-0.700861,484068551.691296
0.049193,-0.039561,-0.036978,0.694246,0.162840,-0.057586,-0.698706,484068551.691743
0.045586,-0.033194,0.001200,0.696644,0.162670,-0.056152,-0.696471,484068551.707247
0.049246,-0.046265,0.046179,0.699193,0.162669,-0.055110,-0.693996,484068551.722470
0.033424,-0.056798,0.087428,0.702066,0.162293,-0.053894,-0.691274,484068551.722859
-0.035729,0.039920,0.048232,0.705158,0.161502,-0.051923,-0.688457,484068551.738403
0.036279,0.014554,-0.066853,0.708324,0.160261,-0.049699,-0.685655,484068551.754208
0.031412,0.030182,-0.139119,0.711478,0.158735,-0.047182,-0.682918,484068551.754576
0.068231,0.012116,-0.190925,0.714253,0.157492,-0.044737,-0.680468,484068551.770200
0.074052,-0.009384,-0.143302,0.716657,0.156305,-0.042493,-0.678355,484068551.786427
0.058327,-0.012837,-0.121413,0.718875,0.154959,-0.039948,-0.676469,484068551.787242
0.050524,-0.023152,-0.135337,0.720975,0.153554,-0.037253,-0.674706,484068551.801357
0.052695,-0.024988,-0.144251,0.723023,0.152272,-0.034627,-0.672943,484068551.817217
0.040915,-0.024142,-0.155226,0.725008,0.151254,-0.032142,-0.671158,484068551.817603
0.045341,-0.028906,-0.141475,0.726846,0.150368,-0.029657,-0.669481,484068551.832771
0.045046,-0.038773,-0.126843,0.728542,0.149777,-0.027323,-0.667868,484068551.848487
0.046465,-0.046356,-0.111629,0.730174,0.149720,-0.025420,-0.666171,484068551.848864
0.035357,-0.045760,-0.094330,0.731878,0.150402,-0.024136,-0.664193,484068551.864287
0.038085,-0.055195,-0.046911,0.733694,0.151702,-0.023505,-0.661912,484068551.880046
0.042959,-0.046863,-0.020102,0.735676,0.153337,-0.023139,-0.659343,484068551.880286
0.057439,-0.015506,-0.005150,0.737804,0.154873,-0.022705,-0.656616,484068551.895832
0.031200,0.026437,0.013694,0.740079,0.156109,-0.022129,-0.653776,484068551.912317
0.010327,0.030786,0.014090,0.742490,0.156972,-0.020957,-0.650868,484068551.912763
-0.017590,0.043621,-0.036851,0.744978,0.157662,-0.019607,-0.647893,484068551.928605
-0.034838,0.079823,-0.069845,0.747409,0.158381,-0.018504,-0.644944,484068551.942151
-0.039981,0.114555,-0.086325,0.749783,0.159035,-0.017226,-0.642057,484068551.942447
-0.025081,0.123105,-0.111371,0.752055,0.159135,-0.015326,-0.639417,484068551.959020
0.015703,0.113604,-0.152667,0.754171,0.158066,-0.012578,-0.637246,484068551.973732
0.073545,0.097447,-0.169603,0.755920,0.155456,-0.008939,-0.635876,484068551.974126
0.132068,0.107978,-0.190550,0.756901,0.152490,-0.005131,-0.635469,484068551.989559
0.143446,0.120456,-0.141073,0.757226,0.149964,-0.001869,-0.635701,484068552.005582
0.085875,0.166991,-0.060368,0.757474,0.147625,0.000871,-0.635955,484068552.006024
0.019049,0.201245,-0.036297,0.758162,0.144670,0.004259,-0.635801,484068552.022234
0.011220,0.250427,-0.156260,0.759247,0.141179,0.008353,-0.635251,484068552.037386
0.064938,0.311763,-0.214317,0.760081,0.137643,0.012319,-0.634965,484068552.038090
0.134876,0.346824,-0.234686,0.760439,0.133576,0.016315,-0.635314,484068552.052949
0.250102,0.352385,-0.236809,0.760218,0.128130,0.020915,-0.636564,484068552.068796
0.306012,0.302154,-0.250366,0.759543,0.121498,0.025834,-0.638487,484068552.069302
0.249761,0.298311,-0.240616,0.758352,0.115343,0.029592,-0.640876,484068552.084519
0.100994,0.299223,-0.211635,0.756665,0.110810,0.031006,-0.643597,484068552.100303
-0.055967,0.306538,-0.122661,0.754744,0.106944,0.031603,-0.646472,484068552.100714
-0.061929,0.214173,-0.144019,0.752447,0.102923,0.032712,-0.649738,484068552.116111
0.001212,0.152838,-0.158209,0.749156,0.098214,0.034650,-0.654155,484068552.131837
0.013657,0.196390,-0.123963,0.744623,0.092294,0.037519,-0.660008,484068552.132261
-0.019010,0.195607,-0.042961,0.739120,0.084915,0.041573,-0.666906,484068552.147771
-0.102985,0.126554,0.028009,0.733412,0.076528,0.046107,-0.673887,484068552.163279
-0.268430,0.110709,0.103524,0.728092,0.068044,0.050829,-0.680198,484068552.163675
-0.352575,0.085725,0.120521,0.723361,0.059943,0.055455,-0.685624,484068552.179065
-0.389204,0.034337,0.134465,0.719082,0.052414,0.059470,-0.690389,484068552.194987
-0.372241,-0.020318,0.196891,0.715072,0.045114,0.063021,-0.694741,484068552.195362
-0.372690,0.042014,0.241129,0.710999,0.037044,0.067189,-0.698995,484068552.210504
-0.358037,0.075172,0.219444,0.706534,0.027434,0.072905,-0.703379,484068552.226163
-0.345310,0.009430,0.071616,0.701695,0.016312,0.080292,-0.707751,484068552.226535
-0.355535,0.052957,-0.044597,0.696664,0.004047,0.089089,-0.711833,484068552.241998
-0.314689,0.149427,-0.230434,0.691273,-0.008183,0.098043,-0.715864,484068552.257595
-0.339422,0.202585,-0.344156,0.685079,-0.019367,0.106070,-0.720445,484068552.257957
-0.397474,0.173678,-0.330547,0.677945,-0.028271,0.112548,-0.725895,484068552.273166
-0.389376,0.077169,-0.135229,0.670175,-0.034537,0.117243,-0.732070,484068552.289294
-0.395919,0.019159,0.074023,0.662318,-0.038982,0.120423,-0.738454,484068552.290131
-0.302360,0.003796,0.259199,0.654651,-0.043304,0.122685,-0.744651,484068552.304725
-0.255697,-0.003871,0.280562,0.646814,-0.048692,0.124950,-0.750766,484068552.320534
-0.159560,-0.001183,0.180372,0.638615,-0.054493,0.127313,-0.756963,484068552.320908
-0.146997,-0.093124,0.133586,0.630985,-0.059754,0.129092,-0.762642,484068552.336223
-0.113165,-0.142483,0.051629,0.624132,-0.064043,0.129839,-0.767789,484068552.352056
-0.137603,-0.179952,0.037280,0.617724,-0.067315,0.129825,-0.772678,484068552.352430
-0.118888,-0.201044,0.094482,0.611424,-0.069396,0.129045,-0.777620,484068552.369010
-0.142558,-0.190154,0.234093,0.605306,-0.070601,0.127329,-0.782565,484068552.383709
-0.240293,-0.195990,0.291765,0.599624,-0.071391,0.125216,-0.787194,484068552.384163
-0.333755,-0.235867,0.315136,0.594362,-0.072128,0.123683,-0.791349,484068552.399216
-0.390683,-0.286839,0.306501,0.589646,-0.072698,0.122689,-0.794972,484068552.414988
-0.396726,-0.316793,0.287626,0.585640,-0.072811,0.122004,-0.798022,484068552.415364
-0.365998,-0.330072,0.249591,0.582344,-0.072239,0.121372,-0.800578,484068552.430642
-0.317488,-0.334924,0.245486,0.579753,-0.070946,0.120936,-0.802638,484068552.446169
-0.259926,-0.338616,0.240545,0.577823,-0.069186,0.120921,-0.804184,484068552.446575
-0.183713,-0.342646,0.277172,0.576750,-0.067177,0.121326,-0.805063,484068552.462138
-0.110729,-0.333361,0.264554,0.576431,-0.064751,0.121857,-0.805410,484068552.477942
0.018631,-0.296209,0.288711,0.576890,-0.062195,0.122398,-0.805201,484068552.478359
0.065466,-0.283891,0.261104,0.578059,-0.060028,0.123147,-0.804412,484068552.493549
0.115287,-0.298086,0.214029,0.579829,-0.058315,0.123990,-0.803134,484068552.509880
0.133611,-0.303239,0.199749,0.582153,-0.057120,0.124834,-0.801406,484068552.510249
0.111063,-0.243500,0.115988,0.585076,-0.056390,0.125842,-0.799168,484068552.524806
0.108856,-0.180414,0.014949,0.588229,-0.055631,0.126970,-0.796725,484068552.540837
0.146814,-0.159460,-0.030399,0.591348,-0.055192,0.128081,-0.794265,484068552.541409
0.210233,-0.154645,-0.103733,0.594351,-0.055153,0.128973,-0.791878,484068552.556498
0.258268,-0.102515,-0.192728,0.597240,-0.055227,0.129112,-0.789673,484068552.572220
0.258155,0.043700,-0.254984,0.599979,-0.054964,0.128639,-0.787690,484068552.572580
0.344287,0.139215,-0.352283,0.602171,-0.054148,0.127341,-0.786284,484068552.587777
0.450193,0.300140,-0.296959,0.603814,-0.052754,0.124954,-0.785501,484068552.603849
0.398880,0.311053,-0.273693,0.605053,-0.051286,0.121594,-0.785173,484068552.604248
0.335505,0.272666,-0.343750,0.605461,-0.049812,0.117325,-0.785602,484068552.620255
0.232064,0.263115,-0.258285,0.604745,-0.048137,0.111908,-0.787047,484068552.635173
0.154032,0.236625,-0.187583,0.603204,-0.046893,0.106052,-0.789113,484068552.635541
0.072005,0.215187,-0.199844,0.601219,-0.046481,0.100118,-0.791424,484068552.651082
-0.007543,0.161104,-0.293973,0.599040,-0.046697,0.094096,-0.793799,484068552.666566
-0.029218,0.091477,-0.396419,0.596790,-0.046735,0.087921,-0.796195,484068552.667098
0.000945,-0.003640,-0.369955,0.594697,-0.046205,0.081765,-0.798445,484068552.682339
0.049184,-0.104984,-0.311645,0.592948,-0.044858,0.076035,-0.800387,484068552.697913
0.080809,-0.157669,-0.258582,0.591559,-0.042588,0.070879,-0.802010,484068552.698291
0.061871,-0.179441,-0.192391,0.590563,-0.039184,0.066126,-0.803323,484068552.713843
0.015679,-0.155745,-0.049176,0.589920,-0.034499,0.061648,-0.804365,484068552.729837
-0.037271,-0.087315,0.022742,0.589767,-0.029160,0.057633,-0.804986,484068552.730223
-0.135646,0.013447,-0.002193,0.590434,-0.023497,0.054443,-0.804904,484068552.745212
-0.284920,0.203139,0.023359,0.592083,-0.017516,0.052243,-0.803991,484068552.760943
-0.327820,0.353951,0.044314,0.594798,-0.011555,0.051075,-0.802167,484068552.761310
-0.322285,0.372577,-0.052610,0.598016,-0.006465,0.050489,-0.799866,484068552.776649
-0.285658,0.347431,-0.090992,0.600840,-0.002898,0.050108,-0.797792,484068552.793144
-0.341779,0.373244,0.012796,0.602812,-0.000914,0.050240,-0.796299,484068552.793629
-0.336786,0.476764,0.228924,0.604518,-0.000270,0.050350,-0.794999,484068552.808061
-0.364958,0.604593,0.299090,0.605646,-0.002252,0.050685,-0.794115,484068552.823963
-0.364001,0.548145,-0.020789,0.604940,-0.006408,0.050589,-0.794637,484068552.824330
-0.394852,-0.201389,-0.083063,0.602932,-0.009735,0.049020,-0.796226,484068552.840057
-0.438060,-0.612295,0.524482,0.601423,-0.012201,0.048250,-0.797379,484068552.855632
-0.469486,-0.837361,0.796019,0.601628,-0.015078,0.049850,-0.797077,484068552.856059
-0.555982,-0.814174,0.772976,0.604568,-0.017502,0.053052,-0.794592,484068552.871650
-0.623843,-0.631944,0.683993,0.609960,-0.017985,0.057218,-0.790159,484068552.886946
-0.536987,-0.320508,0.717253,0.617045,-0.017288,0.062738,-0.784232,484068552.887408
-0.388590,0.069745,0.684835,0.625198,-0.016401,0.069304,-0.777210,484068552.902527
-0.218298,0.365699,0.589919,0.633769,-0.016192,0.075948,-0.769615,484068552.918105
-0.115422,0.438950,0.513052,0.642171,-0.017819,0.082702,-0.761879,484068552.918548
-0.156064,0.422718,0.282016,0.649651,-0.020923,0.089965,-0.754601,484068552.934175
-0.172351,0.265323,0.038293,0.656016,-0.023722,0.096552,-0.748170,484068552.949984
-0.088632,0.108447,-0.067691,0.662134,-0.026109,0.101314,-0.742046,484068552.950548
-0.175559,-0.118588,-0.139018,0.668242,-0.028413,0.104701,-0.735991,484068552.965675
-0.309419,-0.157131,-0.094892,0.673909,-0.030385,0.107724,-0.730287,484068552.981571
-0.358632,-0.166136,0.062329,0.678681,-0.031915,0.111297,-0.725250,484068552.981969
-0.301047,-0.168588,0.130897,0.682638,-0.033571,0.115509,-0.720788,484068552.996945
-0.247480,-0.147729,0.157404,0.685883,-0.035213,0.119933,-0.716897,484068553.012683
-0.164012,-0.132912,0.161535,0.688533,-0.036477,0.124301,-0.713542,484068553.013052
-0.116267,-0.109318,0.172100,0.690878,-0.037876,0.128622,-0.710429,484068553.028155
-0.089660,-0.064429,0.135137,0.693146,-0.038957,0.132560,-0.707431,484068553.044135
-0.036283,-0.064564,0.166863,0.695511,-0.039478,0.135838,-0.704453,484068553.045058
-0.010110,-0.033851,0.189908,0.698191,-0.039981,0.138799,-0.701189,484068553.060033
0.033746,-0.031003,0.156653,0.701108,-0.040386,0.141227,-0.697761,484068553.074916
0.055058,-0.037037,0.076045,0.704050,-0.041026,0.143525,-0.694284,484068553.075143
0.045505,-0.035845,0.009072,0.706925,-0.042175,0.145666,-0.690840,484068553.091814
0.023705,-0.031591,-0.030966,0.709790,-0.043771,0.147966,-0.687305,484068553.106855
0.032502,-0.049745,-0.082521,0.712543,-0.045932,0.150708,-0.683710,484068553.107279
0.026755,-0.055033,-0.133479,0.715000,-0.048508,0.153852,-0.680258,484068553.122692
0.038934,-0.050810,-0.168542,0.716950,-0.051329,0.157340,-0.677194,484068553.138559
0.047394,-0.035474,-0.159232,0.718525,-0.054111,0.160872,-0.674473,484068553.138990
0.053076,-0.004116,-0.108867,0.720164,-0.056677,0.164178,-0.671712,484068553.154141
0.067327,0.013640,-0.068798,0.722080,-0.059107,0.167224,-0.668688,484068553.170280
0.094478,0.029045,-0.066198,0.724162,-0.061314,0.169694,-0.665608,484068553.170720
0.088323,0.009762,-0.044967,0.726351,-0.063481,0.171947,-0.662434,484068553.185626
0.067342,-0.067549,-0.040342,0.728780,-0.065700,0.174382,-0.658903,484068553.201886
0.097272,-0.094894,-0.094660,0.731321,-0.068126,0.177339,-0.655041,484068553.202547
0.096316,-0.113794,-0.142293,0.733830,-0.070376,0.180287,-0.651181,484068553.217557
0.064003,-0.106880,-0.179134,0.736194,-0.072192,0.183104,-0.647518,484068553.233151
0.046421,-0.079549,-0.190484,0.738345,-0.073457,0.185912,-0.644118,484068553.234020
0.025225,-0.025380,-0.201105,0.740402,-0.074194,0.188376,-0.640948,484068553.248588
0.043488,-0.031821,-0.189366,0.742658,-0.074310,0.189917,-0.637863,484068553.264382
0.031666,-0.009003,-0.197907,0.745216,-0.073994,0.190727,-0.634666,484068553.264752
0.092875,-0.012281,-0.206220,0.747675,-0.073667,0.191491,-0.631575,484068553.279997
0.139208,-0.005478,-0.172093,0.749784,-0.073741,0.192729,-0.628682,484068553.295886
0.177921,0.009435,-0.133013,0.751600,-0.074389,0.194460,-0.625899,484068553.296482
0.223093,0.033195,-0.129142,0.753073,-0.075498,0.196365,-0.623396,484068553.312011
0.264755,0.063706,-0.090265,0.754116,-0.076953,0.198284,-0.621346,484068553.327119
0.249662,0.069824,-0.014515,0.754896,-0.078641,0.200036,-0.619624,484068553.327483
0.232455,0.108704,-0.036933,0.755698,-0.080140,0.201215,-0.618070,484068553.342868
0.227124,0.162139,-0.069212,0.756439,-0.080880,0.201579,-0.616947,484068553.358917
0.184974,0.220687,-0.058129,0.757006,-0.081224,0.201829,-0.616125,484068553.359292
0.155723,0.258648,-0.099700,0.757292,-0.082228,0.202803,-0.615319,484068553.374332
0.088781,0.233903,-0.203160,0.757197,-0.084622,0.205487,-0.614221,484068553.390044
0.085496,0.195885,-0.371125,0.756503,-0.088343,0.209706,-0.613125,484068553.390533
0.207044,0.212730,-0.469056,0.755078,-0.093067,0.214022,-0.612691,484068553.406051
0.325916,0.292704,-0.441712,0.753011,-0.098200,0.217637,-0.613161,484068553.421727
0.324420,0.408143,-0.316067,0.750203,-0.104115,0.221251,-0.614332,484068553.422097
0.228529,0.448710,-0.172576,0.747052,-0.110535,0.224578,-0.615841,484068553.437426
0.157663,0.507927,-0.161983,0.743391,-0.117165,0.227487,-0.617974,484068553.453912
0.061698,0.613846,-0.293419,0.738755,-0.124505,0.231140,-0.620737,484068553.454412
-0.135512,0.654452,-0.544115,0.732320,-0.132385,0.236695,-0.624625,484068553.468990
-0.226164,0.483516,-0.664040,0.723484,-0.139691,0.243834,-0.630557,484068553.484612
-0.351786,0.332796,-0.490728,0.712757,-0.146049,0.251263,-0.638368,484068553.484980
-0.425842,0.227979,-0.206410,0.701263,-0.152092,0.258916,-0.646576,484068553.500564
-0.424765,0.148149,0.037521,0.690431,-0.157774,0.265830,-0.654024,484068553.516072
-0.457386,0.124788,0.300452,0.681759,-0.162518,0.270433,-0.660044,484068553.516437
-0.539994,0.084836,0.507437,0.674830,-0.167334,0.274217,-0.664387,484068553.532011
-0.536782,0.002096,0.593310,0.668494,-0.173548,0.278673,-0.667336,484068553.547460
-0.495192,-0.011264,0.637370,0.662047,-0.182210,0.284342,-0.669061,484068553.548103
-0.150797,0.089319,0.081472,0.654229,-0.193718,0.291231,-0.670553,484068553.563349
-0.102685,0.151635,-0.271955,0.644895,-0.207222,0.300412,-0.671507,484068553.578989
-0.071030,0.212909,-0.741434,0.635449,-0.219156,0.309068,-0.672794,484068553.579352
-0.084059,0.242694,-0.803770,0.627185,-0.226366,0.313943,-0.675898,484068553.594656
-0.126536,0.230857,-0.362406,0.619836,-0.229826,0.315378,-0.680823,484068553.610463
-0.235246,0.164267,0.065829,0.612631,-0.232403,0.315863,-0.686224,484068553.610837
-0.330356,0.055316,0.225570,0.605038,-0.235646,0.317308,-0.691169,484068553.626355
-0.274582,-0.041639,0.262208,0.597429,-0.239137,0.319005,-0.695793,484068553.642213
-0.261760,-0.047222,0.247830,0.590233,-0.242848,0.320275,-0.700053,484068553.642588
-0.284255,-0.073103,0.107462,0.583435,-0.245937,0.321032,-0.704313,484068553.657546
-0.316329,-0.151275,0.054010,0.576797,-0.248507,0.321771,-0.708529,484068553.673781
-0.237760,-0.163342,0.061376,0.570796,-0.249823,0.322060,-0.712782,484068553.674151
-0.192423,-0.168047,0.149309,0.565519,-0.250328,0.321688,-0.716967,484068553.689137
-0.197352,-0.130044,0.152292,0.561008,-0.250778,0.321083,-0.720615,484068553.704610
-0.145321,-0.128600,0.159311,0.556898,-0.251420,0.320432,-0.723862,484068553.704862
-0.153852,-0.157732,0.124411,0.552872,-0.252251,0.319537,-0.727048,484068553.720639
-0.183037,-0.200863,0.145720,0.549068,-0.252401,0.318060,-0.730518,484068553.736366
-0.257545,-0.252338,0.201048,0.545828,-0.252006,0.316159,-0.733899,484068553.736726
-0.321208,-0.322174,0.283948,0.543325,-0.251436,0.314193,-0.736790,484068553.751935
-0.370010,-0.372153,0.316601,0.541546,-0.250982,0.312441,-0.738997,484068553.767993
-0.386419,-0.412856,0.331996,0.540622,-0.250589,0.311037,-0.740398,484068553.768365
-0.379064,-0.439344,0.323273,0.540638,-0.250184,0.310046,-0.740939,484068553.783383
-0.354466,-0.443860,0.297745,0.541520,-0.249510,0.309480,-0.740758,484068553.799289
-0.261610,-0.417905,0.221213,0.543201,-0.248278,0.309114,-0.740094,484068553.799709
-0.189981,-0.434036,0.224645,0.545479,-0.246675,0.308981,-0.739009,484068553.815657
-0.131524,-0.426730,0.207434,0.548464,-0.244843,0.309173,-0.737327,484068553.830560
-0.070832,-0.428520,0.187170,0.552163,-0.242705,0.309399,-0.735175,484068553.830928
-0.013127,-0.459712,0.159306,0.556589,-0.240382,0.309530,-0.732541,484068553.846404
0.039135,-0.487371,0.139090,0.561779,-0.238055,0.309368,-0.729401,484068553.862181
0.084388,-0.501748,0.105284,0.567824,-0.235792,0.308693,-0.725732,484068553.862543
0.064309,-0.367813,0.009421,0.574733,-0.233217,0.307746,-0.721514,484068553.877766
0.112735,-0.216242,-0.151561,0.582137,-0.229582,0.306515,-0.717256,484068553.894164
0.245081,-0.021022,-0.282026,0.589125,-0.224735,0.304900,-0.713766,484068553.894679
0.416960,0.219685,-0.373903,0.594976,-0.219535,0.302857,-0.711397,484068553.909226
0.751885,0.675868,-0.624757,0.599158,-0.214068,0.299497,-0.710975,484068553.925197
0.803462,0.763059,-0.552155,0.600954,-0.209229,0.294849,-0.712840,484068553.925601
0.639165,0.683440,-0.346827,0.600295,-0.206225,0.289957,-0.716270,484068553.940966
0.434174,0.488229,-0.137138,0.598354,-0.205406,0.284963,-0.720123,484068553.957082
0.267261,0.335435,-0.063068,0.595991,-0.207339,0.280039,-0.723452,484068553.957607
0.169307,0.231432,-0.180642,0.593358,-0.211454,0.275189,-0.726282,484068553.972009
0.108916,0.146640,-0.398810,0.590853,-0.216104,0.269820,-0.728964,484068553.988138
0.039367,0.081782,-0.560258,0.588728,-0.219541,0.264042,-0.731767,484068553.988548
0.012490,0.053332,-0.654126,0.587114,-0.220607,0.258357,-0.734766,484068554.003705
-0.035525,0.161723,-0.654625,0.586147,-0.218109,0.252612,-0.738273,484068554.019363
-0.167942,0.483386,-0.365792,0.585490,-0.212709,0.247662,-0.742038,484068554.019776
-0.250156,0.841910,-0.039635,0.584503,-0.206655,0.244291,-0.745636,484068554.035626
-0.300412,0.708719,0.184019,0.582080,-0.202104,0.242527,-0.749345,484068554.051311
-0.270250,0.381361,0.553506,0.578683,-0.200037,0.240902,-0.753046,484068554.051795
-0.229589,0.070788,0.817451,0.577091,-0.199679,0.237972,-0.755290,484068554.067076
-0.316608,-0.232352,0.944429,0.578271,-0.200797,0.233741,-0.755413,484068554.081612
-0.493850,-0.513177,0.581557,0.580301,-0.204486,0.230527,-0.753853,484068554.081914
-0.643443,-0.676975,-0.235111,0.581018,-0.209444,0.230005,-0.752096,484068554.098077
-0.820743,-0.758364,-0.218456,0.582526,-0.211950,0.230595,-0.750044,484068554.113748
-0.913871,-0.761429,-0.057649,0.585821,-0.211333,0.231756,-0.747289,484068554.114159
-0.961554,-0.567440,-0.160942,0.589872,-0.207916,0.234476,-0.744206,484068554.129854
-0.812071,-0.323928,-0.069674,0.594822,-0.202109,0.238525,-0.740570,484068554.145147
-0.336699,-0.014988,0.510155,0.601444,-0.196135,0.241456,-0.735864,484068554.145510
0.059898,0.624449,0.647285,0.608880,-0.191438,0.242990,-0.730461,484068554.161002
0.001070,0.577205,0.502970,0.614335,-0.188651,0.245982,-0.725600,484068554.177113
-0.143045,0.398636,0.233558,0.617550,-0.188390,0.251548,-0.721017,484068554.177947
-0.170228,0.149680,-0.040932,0.620078,-0.187901,0.257299,-0.716933,484068554.192346
-0.190298,-0.091943,-0.238250,0.622920,-0.185068,0.260559,-0.714024,484068554.208257
-0.260049,-0.277719,-0.223779,0.626649,-0.180153,0.260889,-0.711893,484068554.208672
-0.324373,-0.299636,-0.157576,0.631227,-0.174028,0.260020,-0.709688,484068554.223862
-0.302865,-0.261123,-0.041631,0.635886,-0.167224,0.259882,-0.707210,484068554.240264
-0.201616,-0.175431,0.051953,0.640034,-0.160641,0.260789,-0.704656,484068554.240933
-0.062214,-0.045017,0.125936,0.643443,-0.154883,0.261831,-0.702450,484068554.255605
0.093738,0.070440,0.181043,0.646343,-0.150519,0.261953,-0.700689,484068554.271317
0.207593,0.082178,0.177869,0.649184,-0.146661,0.260652,-0.699365,484068554.271677
0.159587,-0.057697,0.277161,0.652464,-0.142975,0.258110,-0.698017,484068554.287021
0.124839,-0.072097,0.331650,0.656420,-0.139473,0.254764,-0.696243,484068554.302618
0.104865,-0.074203,0.324313,0.661379,-0.136412,0.251061,-0.693497,484068554.302977
0.056863,-0.080506,0.228567,0.667293,-0.134182,0.247282,-0.689614,484068554.318390
0.016534,-0.118267,0.023787,0.673485,-0.132361,0.243758,-0.685187,484068554.334085
-0.037150,-0.152613,-0.131199,0.679273,-0.130554,0.240566,-0.680934,484068554.334447
-0.051697,-0.163993,-0.189900,0.684519,-0.128530,0.237757,-0.677041,484068554.349740
-0.043964,-0.167779,-0.192214,0.689328,-0.126369,0.235114,-0.673483,484068554.365623
-0.028279,-0.142492,-0.158084,0.693835,-0.124117,0.232439,-0.670194,484068554.365996
-0.017222,-0.120511,-0.133812,0.698155,-0.121891,0.229772,-0.667029,484068554.381296
-0.016596,-0.098338,-0.074876,0.702445,-0.120094,0.227534,-0.663609,484068554.397104
-0.065217,-0.073444,-0.010780,0.706626,-0.118794,0.225912,-0.659949,484068554.397498
-0.185354,-0.058143,-0.085871,0.710581,-0.117384,0.224885,-0.656294,484068554.412707
-0.138010,-0.058109,-0.105640,0.714231,-0.115974,0.224899,-0.652567,484068554.428441
-0.062211,-0.058621,-0.122301,0.717459,-0.114558,0.225611,-0.649021,484068554.428813
0.025879,-0.071087,-0.112749,0.720318,-0.113327,0.226855,-0.645628,484068554.444140
0.088513,-0.065299,-0.071683,0.722977,-0.112270,0.228507,-0.642250,484068554.459965
0.143290,-0.065353,-0.061979,0.725585,-0.111479,0.230561,-0.638702,484068554.460386
0.185019,-0.054079,-0.083555,0.728274,-0.110779,0.232517,-0.635044,484068554.475525
0.185127,-0.022189,-0.114055,0.731024,-0.110082,0.234221,-0.631369,484068554.491788
0.186241,0.023843,-0.177204,0.733796,-0.109434,0.235567,-0.627755,484068554.492235
0.204238,0.097687,-0.252462,0.736507,-0.108684,0.236317,-0.624419,484068554.506351
0.216815,0.132562,-0.299392,0.739026,-0.107574,0.236279,-0.621644,484068554.522345
0.261210,0.078778,-0.187120,0.741305,-0.105857,0.235121,-0.619661,484068554.522619
0.240448,0.086670,-0.065389,0.743520,-0.103675,0.232751,-0.618269,484068554.539061
0.190785,0.137700,0.011399,0.745809,-0.101058,0.229348,-0.617216,484068554.554309
0.160137,0.154498,0.014809,0.747927,-0.098140,0.225669,-0.616480,484068554.554714
0.150594,0.161049,0.020951,0.749430,-0.095724,0.222660,-0.616128,484068554.569934
0.106931,0.165818,0.003374,0.750139,-0.095105,0.221544,-0.615764,484068554.585662
0.026637,0.176039,-0.104248,0.750069,-0.096772,0.222965,-0.615076,484068554.586105
0.003448,0.169663,-0.270180,0.749387,-0.100087,0.226066,-0.614244,484068554.601303
-0.028621,0.170115,-0.444959,0.748111,-0.104041,0.230068,-0.613657,484068554.618050
0.019575,0.171234,-0.552335,0.745777,-0.108245,0.234753,-0.613995,484068554.618499
0.118752,0.166257,-0.453453,0.742362,-0.112858,0.239780,-0.615359,484068554.633146
0.193425,0.196978,-0.173539,0.738684,-0.118030,0.244580,-0.616924,484068554.648791
0.114182,0.460884,-0.217785,0.734087,-0.124120,0.249849,-0.619101,484068554.649207
0.079575,0.369023,-0.320508,0.728409,-0.130751,0.256050,-0.621903,484068554.664840
0.023649,0.285978,-0.456652,0.721006,-0.137872,0.263562,-0.625841,484068554.680236
-0.098326,0.277218,-0.320324,0.712241,-0.144415,0.271343,-0.631055,484068554.680692
-0.031436,0.267588,-0.153708,0.703873,-0.149117,0.277128,-0.636810,484068554.695707
0.123311,0.231456,0.004755,0.696376,-0.151878,0.279696,-0.643245,484068554.711781
0.280164,0.267439,0.122009,0.689079,-0.153222,0.279443,-0.650850,484068554.712200
0.377101,0.367294,0.191698,0.681634,-0.153928,0.277130,-0.659455,484068554.727361
