ax,ay,az,qx,qy,qz,qw,ts
-0.028821,0.003938,-0.046431,0.032522,-0.177923,-0.967187,0.178426,484068282.831014
0.000233,0.001485,0.027159,0.033704,-0.178435,-0.967178,0.177740,484068282.832408
-0.000826,-0.012513,0.026457,0.034456,-0.178825,-0.967197,0.177097,484068282.844053
-0.044627,-0.020571,0.029488,0.034740,-0.179183,-0.967288,0.176183,484068282.859670
-0.005588,-0.022659,0.044224,0.035057,-0.179383,-0.967457,0.174983,484068282.859949
0.047336,-0.020891,0.051422,0.035579,-0.179668,-0.967609,0.173743,484068282.875813
0.060195,-0.005818,0.058035,0.034884,-0.179499,-0.967815,0.172907,484068282.891104
0.042301,-0.004660,0.032606,0.034060,-0.179328,-0.967972,0.172369,484068282.891398
0.018986,-0.006203,0.011319,0.033150,-0.179244,-0.968087,0.171990,484068282.906521
0.001855,-0.011890,0.012367,0.032399,-0.179283,-0.968155,0.171707,484068282.922339
-0.007205,-0.004882,0.005820,0.031797,-0.179114,-0.968237,0.171536,484068282.922608
-0.014744,-0.002379,-0.004549,0.031434,-0.178934,-0.968318,0.171332,484068282.938732
-0.037869,-0.001098,-0.028942,0.030683,-0.178887,-0.968399,0.171060,484068282.953851
-0.030368,-0.005170,-0.005358,0.030393,-0.178987,-0.968481,0.170541,484068282.955073
-0.021613,0.001162,0.009001,0.030110,-0.179077,-0.968584,0.169914,484068282.969781
-0.004300,-0.002292,0.013951,0.029793,-0.179121,-0.968713,0.169183,484068282.985192
-0.001246,-0.000846,0.023248,0.029413,-0.179200,-0.968839,0.168444,484068282.985475
0.006126,-0.000381,0.014654,0.028921,-0.179092,-0.968994,0.167749,484068283.001367
0.009954,0.002840,-0.003477,0.028304,-0.178962,-0.969140,0.167148,484068283.016859
0.001700,-0.004181,-0.022535,0.027387,-0.178954,-0.969262,0.166600,484068283.017155
0.001712,-0.005043,-0.018230,0.026425,-0.179033,-0.969368,0.166056,484068283.032587
-0.010096,-0.041103,-0.022356,0.025606,-0.179160,-0.969464,0.165487,484068283.048126
-0.033995,-0.017945,-0.033617,0.024752,-0.179471,-0.969574,0.164630,484068283.048729
-0.073397,-0.010594,0.021412,0.023026,-0.180414,-0.969662,0.163331,484068283.063843
-0.075021,-0.012333,0.030794,0.022269,-0.181291,-0.969860,0.161276,484068283.079721
-0.051363,-0.004051,0.010174,0.021269,-0.182320,-0.970148,0.158490,484068283.079951
-0.049861,0.046664,-0.046307,0.019654,-0.183534,-0.970506,0.155073,484068283.095333
0.017672,0.116920,-0.078222,0.018078,-0.185054,-0.970826,0.151410,484068283.111064
0.051393,0.160138,-0.151435,0.018768,-0.187201,-0.970847,0.148526,484068283.111303
0.027650,0.141463,-0.164577,0.020331,-0.190117,-0.970575,0.146375,484068283.126787
-0.034670,0.091760,-0.121762,0.021618,-0.193814,-0.970127,0.144299,484068283.142561
-0.053675,0.044980,-0.031075,0.022275,-0.197768,-0.969668,0.141903,484068283.142782
-0.067644,0.023256,0.064433,0.022786,-0.201489,-0.969294,0.139110,484068283.158567
-0.062229,0.029142,0.102710,0.023637,-0.204763,-0.969040,0.135921,484068283.174350
-0.077033,0.071752,0.075632,0.024267,-0.207844,-0.968884,0.132196,484068283.174596
-0.109878,0.128192,0.026860,0.024552,-0.211058,-0.968757,0.127911,484068283.192569
-0.089612,0.105296,0.040134,0.025010,-0.214555,-0.968603,0.123082,484068283.205343
-0.062085,0.061783,0.085087,0.025545,-0.218213,-0.968414,0.117917,484068283.205577
-0.038715,0.034303,0.109922,0.025515,-0.221519,-0.968318,0.112421,484068283.221046
-0.029602,-0.002591,0.095362,0.024590,-0.224195,-0.968374,0.106691,484068283.236920
-0.028850,-0.018042,0.060009,0.022661,-0.226292,-0.968574,0.100711,484068283.238184
-0.023787,-0.002055,-0.021181,0.019862,-0.227979,-0.968854,0.094620,484068283.252687
-0.023108,-0.001516,-0.069036,0.016806,-0.229728,-0.969064,0.088648,484068283.269241
-0.061578,0.004927,-0.171524,0.014559,-0.232155,-0.969036,0.082834,484068283.269657
-0.124378,-0.019211,-0.205928,0.013816,-0.235538,-0.968712,0.076994,484068283.284750
-0.082167,-0.034876,-0.055341,0.012829,-0.238829,-0.968392,0.070806,484068283.300478
-0.071023,-0.045515,0.116415,0.010971,-0.241317,-0.968250,0.064330,484068283.301613
-0.080150,-0.023859,0.123189,0.008911,-0.242758,-0.968324,0.057771,484068283.317399
-0.012505,-0.028978,0.045943,0.006836,-0.243177,-0.968603,0.051243,484068283.331739
0.153040,-0.061057,-0.037058,0.004803,-0.243062,-0.968938,0.045344,484068283.332226
0.242260,-0.088728,-0.060057,0.002600,-0.242597,-0.969256,0.041010,484068283.347716
0.266413,-0.139916,-0.095141,-0.000425,-0.241701,-0.969584,0.038560,484068283.363569
0.274090,-0.174938,0.018864,-0.004388,-0.240023,-0.970018,0.037886,484068283.364051
0.258294,-0.169189,0.020673,-0.009144,-0.237290,-0.970624,0.038720,484068283.379069
0.280819,-0.163499,-0.050115,-0.015489,-0.233672,-0.971334,0.040837,484068283.395071
0.354396,-0.164415,-0.171453,-0.023550,-0.229750,-0.971949,0.044451,484068283.395467
0.362828,-0.150202,-0.218152,-0.033430,-0.225893,-0.972315,0.049579,484068283.411009
0.287780,-0.118771,-0.231022,-0.045184,-0.222359,-0.972329,0.055601,484068283.426537
0.094154,-0.037353,-0.041253,-0.057748,-0.219089,-0.972008,0.062168,484068283.427014
0.039462,-0.007966,0.020293,-0.070031,-0.215928,-0.971449,0.068976,484068283.442163
-0.022771,0.008759,0.058542,-0.081569,-0.212959,-0.970710,0.075607,484068283.457940
-0.094512,0.028053,0.110413,-0.091960,-0.210223,-0.969882,0.081717,484068283.458556
-0.151449,0.043761,0.172970,-0.100485,-0.207818,-0.969098,0.086966,484068283.473422
-0.167934,0.061192,0.233863,-0.106855,-0.205589,-0.968517,0.091053,484068283.489746
-0.171130,0.086843,0.247225,-0.111147,-0.203269,-0.968231,0.094112,484068283.491150
-0.196558,0.121268,0.203645,-0.113821,-0.201027,-0.968205,0.095978,484068283.505206
-0.199638,0.130014,0.133864,-0.115000,-0.199212,-0.968369,0.096704,484068283.521882
-0.171998,0.114920,0.095763,-0.114409,-0.198094,-0.968688,0.096505,484068283.522306
-0.125863,0.101262,0.084624,-0.112382,-0.197656,-0.969097,0.095669,484068283.536431
-0.127652,0.153738,0.050786,-0.109444,-0.197618,-0.969576,0.094299,484068283.552322
-0.154374,0.216100,-0.021828,-0.105607,-0.198003,-0.970103,0.092423,484068283.552735
-0.148668,0.244739,-0.081083,-0.100768,-0.199332,-0.970561,0.090130,484068283.568078
-0.130534,0.246424,-0.072975,-0.095117,-0.201838,-0.970838,0.087683,484068283.583850
-0.138556,0.233528,-0.029747,-0.088818,-0.205338,-0.970933,0.085064,484068283.584280
-0.227497,0.281499,-0.001243,-0.082136,-0.209708,-0.970861,0.081886,484068283.599342
-0.315921,0.326648,0.049950,-0.074479,-0.214869,-0.970693,0.077718,484068283.615383
-0.370590,0.326878,0.107599,-0.065495,-0.220507,-0.970505,0.072165,484068283.615790
-0.403985,0.281049,0.154043,-0.055191,-0.226299,-0.970318,0.065006,484068283.631180
-0.353195,0.201501,0.157491,-0.044040,-0.231863,-0.970126,0.056170,484068283.646595
-0.287262,0.126939,0.161423,-0.032592,-0.236751,-0.969935,0.045970,484068283.646989
-0.107160,0.028804,0.185041,-0.021170,-0.240519,-0.969793,0.034709,484068283.662399
-0.040186,0.009191,0.153508,-0.010497,-0.242742,-0.969766,0.022790,484068283.678244
-0.028330,0.024326,0.084325,-0.001309,-0.243310,-0.969891,0.010440,484068283.678733
-0.036028,0.044905,0.021962,0.006318,-0.242478,-0.970133,-0.002354,484068283.693768
-0.023669,0.031625,-0.075351,0.012506,-0.240523,-0.970439,-0.015495,484068283.710007
-0.017825,-0.009632,-0.185302,0.016874,-0.238035,-0.970677,-0.028983,484068283.710623
0.089148,-0.064065,-0.105537,0.019491,-0.234874,-0.970907,-0.042367,484068283.725256
0.128008,-0.083453,-0.047622,0.020233,-0.230870,-0.971205,-0.055229,484068283.741246
0.047956,-0.068030,-0.049681,0.019753,-0.226407,-0.971458,-0.067969,484068283.741558
-0.020230,-0.039360,-0.054449,0.019398,-0.222194,-0.971453,-0.080824,484068283.756441
-0.111354,0.040586,-0.150427,0.019505,-0.218951,-0.970965,-0.094375,484068283.772107
-0.184998,0.140142,-0.161087,0.020180,-0.216923,-0.969888,-0.108876,484068283.772395
-0.178064,0.152513,-0.076290,0.021679,-0.215927,-0.968216,-0.124351,484068283.787671
-0.084136,0.104526,0.015851,0.023727,-0.215613,-0.966016,-0.140573,484068283.803457
0.007501,0.060578,0.087451,0.026066,-0.215354,-0.963468,-0.157074,484068283.803697
0.056800,0.039821,0.093058,0.028674,-0.214712,-0.960709,-0.173538,484068283.819227
0.097120,0.046190,0.041997,0.031352,-0.213773,-0.957797,-0.189587,484068283.834689
0.104243,0.042138,-0.039924,0.033800,-0.212823,-0.954745,-0.205003,484068283.834974
0.079851,0.050962,-0.118715,0.035655,-0.212119,-0.951529,-0.219835,484068283.851215
0.040882,0.069180,-0.158454,0.036662,-0.211665,-0.948139,-0.234278,484068283.866804
0.020336,0.040337,-0.111132,0.037250,-0.211304,-0.944589,-0.248423,484068283.867180
0.038345,-0.025160,-0.025437,0.037702,-0.210643,-0.940938,-0.262382,484068283.882758
0.029767,-0.030928,-0.096864,0.037098,-0.209553,-0.937135,-0.276568,484068283.898491
0.070125,-0.038550,0.005763,0.036298,-0.208200,-0.933224,-0.290565,484068283.899342
0.089788,0.004478,0.077992,0.035343,-0.206495,-0.929282,-0.304212,484068283.913788
0.106399,0.031456,0.190843,0.034931,-0.204397,-0.925370,-0.317320,484068283.929927
0.108388,0.044987,0.234760,0.035826,-0.201987,-0.921534,-0.329687,484068283.930334
0.102701,0.050679,0.213313,0.037935,-0.199308,-0.917723,-0.341499,484068283.945542
0.088682,0.045520,0.165341,0.040931,-0.196435,-0.913826,-0.353071,484068283.961268
0.093959,0.021185,0.147504,0.044712,-0.193233,-0.909952,-0.364211,484068283.961629
0.096068,0.011149,0.171551,0.048904,-0.189277,-0.906155,-0.375054,484068283.977292
0.099100,-0.000825,0.202207,0.053266,-0.184159,-0.902621,-0.385387,484068283.993102
0.091483,-0.001349,0.251714,0.057903,-0.177577,-0.899404,-0.395203,484068283.994041
0.084820,-0.006358,0.309997,0.063258,-0.169338,-0.896495,-0.404499,484068284.008483
0.084290,0.028031,0.334102,0.069325,-0.158969,-0.893884,-0.413394,484068284.025094
0.112732,0.436600,-1.303697,0.076937,-0.150232,-0.890910,-0.421652,484068284.025530
-0.047131,0.207182,-1.122497,0.084543,-0.153693,-0.885832,-0.429572,484068284.039911
0.041267,-0.033963,0.061434,0.085233,-0.158400,-0.880274,-0.439046,484068284.056091
0.066190,-0.033638,0.250348,0.088392,-0.163365,-0.874550,-0.447953,484068284.056549
0.068766,0.022011,-0.104777,0.092534,-0.168476,-0.868797,-0.456338,484068284.071500
0.069019,0.052913,-0.240363,0.095241,-0.174157,-0.863009,-0.464557,484068284.087310
0.078768,0.062597,-0.157028,0.096639,-0.180045,-0.857543,-0.472085,484068284.087923
0.085464,0.034222,-0.149165,0.096943,-0.185740,-0.852639,-0.478654,484068284.102772
0.111949,-0.024141,-0.184260,0.095881,-0.191181,-0.848265,-0.484462,484068284.118927
0.132491,-0.077048,-0.149103,0.093540,-0.196379,-0.844275,-0.489780,484068284.119469
0.097661,-0.088043,-0.086419,0.090461,-0.201351,-0.840584,-0.494664,484068284.134204
0.051160,-0.036755,-0.028805,0.087152,-0.206186,-0.837129,-0.499107,484068284.150034
0.021760,-0.024943,-0.053576,0.084005,-0.211447,-0.833695,-0.503177,484068284.150483
0.056352,0.014066,-0.037131,0.081175,-0.217556,-0.830058,-0.507034,484068284.166164
0.077161,0.042352,-0.052393,0.079136,-0.224903,-0.826243,-0.510371,484068284.181637
0.072906,0.072510,-0.174247,0.078019,-0.233929,-0.822291,-0.512863,484068284.182162
0.040146,0.056849,-0.167632,0.076605,-0.243754,-0.818285,-0.514903,484068284.197490
0.036462,0.040974,-0.163753,0.073735,-0.252794,-0.814534,-0.516907,484068284.212983
-0.009760,0.028652,-0.026222,0.070273,-0.260700,-0.811166,-0.518756,484068284.213532
-0.074095,0.008951,0.138375,0.068152,-0.267624,-0.808158,-0.520205,484068284.228644
-0.076203,-0.024995,0.037761,0.066899,-0.273433,-0.805375,-0.521660,484068284.244262
-0.114552,-0.069913,0.110900,0.067832,-0.279098,-0.802456,-0.523037,484068284.244703
-0.075840,-0.107446,0.163716,0.070550,-0.284249,-0.799301,-0.524731,484068284.260184
0.051233,-0.060895,0.216844,0.074369,-0.288031,-0.796410,-0.526535,484068284.275912
0.168862,-0.010672,0.228353,0.078778,-0.290028,-0.794495,-0.527689,484068284.276330
0.181379,0.046848,0.202075,0.083574,-0.290619,-0.793874,-0.527561,484068284.291540
0.065811,0.133975,0.154442,0.088526,-0.290396,-0.794155,-0.526451,484068284.307659
-0.052116,0.195838,0.084146,0.093301,-0.290043,-0.794558,-0.525212,484068284.308077
-0.106141,0.206353,0.054434,0.097689,-0.290245,-0.794462,-0.524447,484068284.323132
-0.089637,0.157346,0.081878,0.102186,-0.291355,-0.793763,-0.524033,484068284.339553
-0.070191,0.122067,0.056224,0.106656,-0.293285,-0.792483,-0.524003,484068284.339985
-0.069443,0.100020,0.011284,0.111132,-0.296254,-0.790415,-0.524526,484068284.354511
-0.062620,0.072026,-0.042476,0.115949,-0.301029,-0.787313,-0.525429,484068284.370286
-0.031053,0.066659,-0.087021,0.120835,-0.307532,-0.783274,-0.526598,484068284.370683
-0.154408,0.086304,-0.086506,0.125509,-0.315314,-0.778397,-0.528132,484068284.386025
-0.150376,0.068813,0.010809,0.130260,-0.323967,-0.772466,-0.530447,484068284.401741
0.093162,0.005188,0.062985,0.134380,-0.331920,-0.766524,-0.533115,484068284.402177
0.052542,0.011027,-0.024686,0.137652,-0.338937,-0.761296,-0.535352,484068284.417665
-0.013195,0.011722,-0.035371,0.140270,-0.345434,-0.756517,-0.537291,484068284.433377
-0.062461,-0.000152,-0.020874,0.142941,-0.352050,-0.751743,-0.538991,484068284.433803
-0.069690,0.009666,0.004713,0.146189,-0.359237,-0.746658,-0.540444,484068284.448980
-0.051714,-0.015244,-0.009015,0.149685,-0.366751,-0.741263,-0.541864,484068284.464785
-0.003494,-0.032373,0.013145,0.152994,-0.374109,-0.735922,-0.543189,484068284.465186
0.039711,-0.034976,0.043938,0.156274,-0.381279,-0.730847,-0.544120,484068284.480592
0.045375,-0.042385,0.040423,0.159654,-0.388293,-0.726098,-0.544537,484068284.496293
0.142530,-0.108828,-0.020928,0.162918,-0.394875,-0.722087,-0.544171,484068284.496725
0.066850,-0.114885,-0.057663,0.165803,-0.400736,-0.718938,-0.543183,484068284.512782
-0.038994,-0.115051,-0.071172,0.168218,-0.405690,-0.716336,-0.542201,484068284.527670
-0.059801,-0.095570,-0.092823,0.170097,-0.409662,-0.713972,-0.541745,484068284.528073
-0.020347,-0.102356,-0.131870,0.171441,-0.413572,-0.711495,-0.541610,484068284.543340
0.025794,-0.154246,-0.153879,0.171957,-0.418452,-0.708637,-0.541444,484068284.559447
-0.001688,-0.119400,-0.126361,0.170301,-0.424335,-0.705159,-0.541930,484068284.559874
-0.025591,0.009212,-0.054385,0.166687,-0.429939,-0.701097,-0.543903,484068284.575152
-0.068870,-0.059040,0.015130,0.162067,-0.434391,-0.697309,-0.546624,484068284.590579
-0.132511,-0.073839,0.027190,0.157322,-0.437090,-0.693952,-0.550120,484068284.591041
-0.126317,-0.063600,-0.028556,0.151918,-0.438114,-0.690713,-0.554881,484068284.607615
-0.151394,-0.128994,-0.004964,0.145041,-0.438293,-0.687638,-0.560372,484068284.621253
-0.193497,-0.121602,0.003624,0.136540,-0.438013,-0.684610,-0.566401,484068284.621485
-0.232803,-0.132716,0.068121,0.126530,-0.437563,-0.681424,-0.572878,484068284.637959
-0.262387,-0.154191,0.144578,0.115649,-0.437098,-0.678061,-0.579486,484068284.653700
-0.287094,-0.161948,0.182584,0.104818,-0.437047,-0.674457,-0.585756,484068284.654154
-0.282471,-0.174551,0.196362,0.094541,-0.437820,-0.670673,-0.591247,484068284.669314
-0.287307,-0.166309,0.178884,0.084708,-0.439815,-0.666566,-0.595884,484068284.685110
-0.293990,-0.175762,0.146357,0.074998,-0.443141,-0.662016,-0.599780,484068284.685807
-0.291798,-0.200667,0.122986,0.065121,-0.447544,-0.657141,-0.603017,484068284.701088
-0.285295,-0.228436,0.073981,0.054755,-0.452641,-0.652131,-0.605676,484068284.716549
-0.282213,-0.245169,0.030606,0.043952,-0.458174,-0.647164,-0.607721,484068284.716935
-0.311455,-0.238792,-0.039746,0.033088,-0.463967,-0.642379,-0.609088,484068284.732171
-0.326445,-0.189847,-0.074730,0.022569,-0.469894,-0.637941,-0.609689,484068284.748038
-0.349544,-0.136740,-0.125452,0.012562,-0.475616,-0.633966,-0.609687,484068284.748456
-0.362095,-0.111469,-0.181789,0.002878,-0.481005,-0.630498,-0.609178,484068284.763850
-0.379216,-0.091933,-0.275219,-0.006965,-0.486060,-0.627461,-0.608268,484068284.779639
-0.371987,-0.083237,-0.372265,-0.017808,-0.490722,-0.624799,-0.607042,484068284.780037
-0.377176,-0.049286,-0.424192,-0.030120,-0.494669,-0.622509,-0.605705,484068284.794868
-0.380889,-0.066100,-0.468216,-0.044050,-0.497404,-0.620919,-0.604242,484068284.810840
-0.388934,-0.074417,-0.498023,-0.059451,-0.498833,-0.620388,-0.602288,484068284.811252
-0.389054,-0.054952,-0.481527,-0.075357,-0.499275,-0.621261,-0.599233,484068284.826937
-0.380101,-0.032232,-0.460896,-0.090644,-0.499201,-0.623709,-0.594617,484068284.842179
-0.325785,0.016323,-0.483032,-0.104934,-0.498776,-0.627717,-0.588373,484068284.842584
-0.171799,0.143393,-0.579922,-0.118281,-0.497660,-0.632929,-0.581158,484068284.858078
-0.067591,0.204214,-0.616717,-0.131144,-0.495377,-0.638831,-0.573844,484068284.874048
0.008539,0.240742,-0.621752,-0.143775,-0.491573,-0.645119,-0.567016,484068284.874416
0.088531,0.266036,-0.613198,-0.156186,-0.486247,-0.651680,-0.560788,484068284.889472
0.153453,0.279724,-0.595979,-0.168354,-0.479476,-0.658332,-0.555301,484068284.905234
0.227489,0.281656,-0.585013,-0.180235,-0.471328,-0.664987,-0.550598,484068284.905615
0.284404,0.294458,-0.562740,-0.191985,-0.461753,-0.671443,-0.546891,484068284.921456
0.318059,0.288860,-0.541379,-0.203740,-0.450939,-0.677403,-0.544306,484068284.936845
0.374830,0.258020,-0.521451,-0.215818,-0.439204,-0.682733,-0.542584,484068284.937250
0.433623,0.253132,-0.450005,-0.228204,-0.426512,-0.687546,-0.541563,484068284.952719
0.485648,0.275727,-0.358901,-0.240473,-0.413080,-0.691804,-0.541245,484068284.968233
0.507913,0.340550,-0.178050,-0.252031,-0.399509,-0.695293,-0.541702,484068284.968637
0.524194,0.319741,-0.128421,-0.262425,-0.386281,-0.697879,-0.543033,484068284.983986
0.532212,0.272379,-0.055138,-0.271708,-0.373584,-0.699531,-0.545221,484068284.999870
0.532716,0.227298,-0.015393,-0.279979,-0.361589,-0.700423,-0.547971,484068285.000302
0.510437,0.188927,0.008197,-0.287680,-0.350152,-0.700420,-0.551403,484068285.015635
0.491460,0.131776,0.051421,-0.294888,-0.339195,-0.699646,-0.555413,484068285.031089
0.456273,0.065928,0.089396,-0.301568,-0.328767,-0.698261,-0.559822,484068285.031407
0.442204,0.006823,0.114191,-0.307705,-0.319062,-0.696438,-0.564350,484068285.046868
0.423093,-0.021489,0.098290,-0.313589,-0.309990,-0.694085,-0.569047,484068285.062256
0.394530,-0.061570,0.073525,-0.319447,-0.301706,-0.691036,-0.573931,484068285.062969
0.355348,-0.115696,0.038508,-0.325138,-0.294529,-0.687379,-0.578833,484068285.078320
0.254843,-0.299501,-0.089868,-0.331902,-0.288479,-0.682827,-0.583410,484068285.093940
0.186769,-0.341048,-0.017869,-0.342161,-0.283909,-0.676472,-0.587118,484068285.094339
0.209206,-0.275167,0.109854,-0.355382,-0.281056,-0.668652,-0.589590,484068285.110231
0.230953,-0.154707,0.177313,-0.370476,-0.279776,-0.660129,-0.590510,484068285.125560
0.221982,-0.134883,0.278888,-0.386160,-0.280141,-0.651298,-0.590095,484068285.125947
0.233799,-0.036293,0.342198,-0.401614,-0.280837,-0.642740,-0.588831,484068285.141485
0.207935,-0.024294,0.357612,-0.416671,-0.280632,-0.635094,-0.586759,484068285.156965
0.128710,-0.032842,0.441382,-0.431076,-0.278277,-0.628537,-0.584531,484068285.157749
0.031305,-0.047008,0.489371,-0.443995,-0.272854,-0.622972,-0.583374,484068285.172773
-0.072153,-0.008411,0.344735,-0.455442,-0.265890,-0.617391,-0.583698,484068285.188190
-0.134992,-0.121226,0.279544,-0.464996,-0.260334,-0.611404,-0.584971,484068285.188584
-0.118271,-0.216376,0.172201,-0.472433,-0.257076,-0.605874,-0.586204,484068285.204196
0.038414,-0.051383,-0.010467,-0.479399,-0.254620,-0.600736,-0.586908,484068285.219860
0.068691,-0.141176,0.037618,-0.486319,-0.252071,-0.595742,-0.587405,484068285.220421
0.127417,-0.145593,0.040725,-0.492756,-0.249277,-0.591025,-0.587998,484068285.235661
0.120074,-0.185204,0.034467,-0.497883,-0.246218,-0.586956,-0.589043,484068285.251456
0.296373,0.090375,-0.181612,-0.503010,-0.242162,-0.582896,-0.590398,484068285.251869
0.372560,0.276070,-0.092179,-0.511149,-0.236568,-0.577160,-0.591311,484068285.267069
0.337889,0.324473,-0.122653,-0.521867,-0.229629,-0.568875,-0.592711,484068285.283710
0.238843,0.424282,0.245479,-0.533664,-0.223910,-0.557005,-0.595662,484068285.284084
0.289278,0.275353,0.338832,-0.542344,-0.221147,-0.544284,-0.600593,484068285.298429
0.149654,0.124925,0.221245,-0.547976,-0.221323,-0.530872,-0.607382,484068285.314360
0.140585,-0.128444,0.065022,-0.552959,-0.221396,-0.518085,-0.613847,484068285.314746
-0.245070,-0.464506,-0.235263,-0.560494,-0.216286,-0.508056,-0.617208,484068285.330127
-0.269664,-0.245787,-0.157206,-0.569641,-0.206976,-0.499206,-0.619245,484068285.345753
-0.181983,-0.306006,-0.170868,-0.577217,-0.197477,-0.492099,-0.621016,484068285.346125
-0.172037,-0.178958,-0.169672,-0.582281,-0.189837,-0.487544,-0.622263,484068285.361427
-0.159781,-0.074548,-0.143477,-0.585902,-0.184017,-0.484337,-0.623117,484068285.377419
-0.114997,-0.010508,-0.090211,-0.588920,-0.179915,-0.481745,-0.623478,484068285.377828
-0.070120,0.042603,-0.021326,-0.591814,-0.177153,-0.479507,-0.623254,484068285.392930
-0.043163,0.093557,0.024913,-0.594711,-0.175469,-0.477326,-0.622647,484068285.408893
-0.062315,0.139674,0.040081,-0.597507,-0.174555,-0.474655,-0.622269,484068285.410147
-0.104946,-0.002565,0.081291,-0.599723,-0.174172,-0.472506,-0.621880,484068285.424820
-0.204254,-0.047070,0.072187,-0.601521,-0.174094,-0.470945,-0.621349,484068285.439971
-0.205913,0.024919,0.006994,-0.603570,-0.174289,-0.468414,-0.621220,484068285.440419
-0.129057,-0.038277,-0.007802,-0.606029,-0.174743,-0.465299,-0.621039,484068285.455970
-0.110436,-0.078391,-0.031279,-0.608605,-0.175950,-0.461738,-0.620838,484068285.471609
-0.140034,-0.159329,-0.124729,-0.611296,-0.178023,-0.457895,-0.620450,484068285.471976
-0.243988,-0.190585,-0.258271,-0.613877,-0.181782,-0.453447,-0.620078,484068285.487250
-0.430143,-0.233498,-0.246397,-0.615613,-0.189067,-0.448305,-0.619917,484068285.503343
-0.577199,-0.422718,-0.204430,-0.615065,-0.200676,-0.443315,-0.620400,484068285.503771
-0.442696,-0.462948,-0.179759,-0.612011,-0.215282,-0.438707,-0.621797,484068285.518823
-0.138104,-0.564794,0.161496,-0.606382,-0.229626,-0.436769,-0.623543,484068285.534541
0.006947,-0.405947,0.285708,-0.598449,-0.242730,-0.437424,-0.625780,484068285.534953
0.131085,-0.039057,0.432518,-0.589124,-0.255610,-0.439074,-0.628340,484068285.549768
0.374942,0.240491,0.376257,-0.579981,-0.268423,-0.439570,-0.631150,484068285.565443
0.651546,0.438294,0.239591,-0.572256,-0.282280,-0.436649,-0.634176,484068285.565715
0.492948,0.371118,0.333353,-0.566088,-0.295286,-0.430279,-0.638131,484068285.581109
0.302706,0.284835,0.366522,-0.559839,-0.308138,-0.421658,-0.643301,484068285.597046
0.275494,0.216153,0.210101,-0.552222,-0.321270,-0.411776,-0.649828,484068285.597340
0.247538,0.136521,0.052284,-0.544288,-0.333447,-0.400738,-0.657246,484068285.612685
0.217735,0.227659,-0.024962,-0.537191,-0.343483,-0.388465,-0.665237,484068285.628636
0.192789,0.308144,0.000545,-0.531015,-0.351780,-0.374736,-0.673682,484068285.628924
0.134312,0.434057,0.064602,-0.525094,-0.360135,-0.359873,-0.681961,484068285.644229
0.069915,0.547082,0.145850,-0.518522,-0.369506,-0.344893,-0.689673,484068285.659845
-0.031133,0.473115,0.222903,-0.511490,-0.378881,-0.331969,-0.696149,484068285.660075
-0.076679,0.102638,0.212282,-0.505114,-0.386681,-0.324982,-0.699803,484068285.675423
-0.874647,-0.752835,-0.504555,-0.501238,-0.391045,-0.325444,-0.699950,484068285.691231
-0.793395,-0.184070,-0.642986,-0.502013,-0.391652,-0.331563,-0.696173,484068285.691462
-0.553270,-0.088722,-0.445065,-0.506031,-0.389691,-0.341138,-0.689709,484068285.708031
-0.325405,-0.078277,-0.393060,-0.511259,-0.386158,-0.352543,-0.682063,484068285.723746
-0.153272,0.036050,-0.276066,-0.517541,-0.382072,-0.364307,-0.673389,484068285.724205
0.039023,0.196777,-0.160819,-0.524028,-0.380457,-0.373640,-0.664108,484068285.739086
0.287883,0.130914,-0.085208,-0.530481,-0.382525,-0.379666,-0.654307,484068285.754901
0.123949,-0.086764,0.273547,-0.535743,-0.387413,-0.385626,-0.643571,484068285.755481
-0.005558,-0.519861,0.607406,-0.538079,-0.392738,-0.393730,-0.633407,484068285.770499
-0.018503,-0.688661,0.471667,-0.538161,-0.397260,-0.404398,-0.623722,484068285.786063
0.338055,-0.773960,0.050556,-0.539560,-0.398116,-0.414739,-0.615118,484068285.786442
0.272376,-0.597577,0.062202,-0.543744,-0.393050,-0.423174,-0.608915,484068285.801792
0.131836,-0.364379,0.135276,-0.548082,-0.384684,-0.431073,-0.604814,484068285.817979
0.013026,-0.087172,0.284124,-0.550815,-0.374733,-0.438591,-0.603172,484068285.818401
-0.016697,0.074881,0.429239,-0.551192,-0.364885,-0.445916,-0.603494,484068285.833508
-0.168252,0.133762,0.532684,-0.549504,-0.356447,-0.453334,-0.604549,484068285.849181
-0.243698,0.048596,0.526477,-0.546064,-0.350084,-0.461784,-0.604988,484068285.849587
-0.035138,0.025931,0.322480,-0.542155,-0.343713,-0.472013,-0.604262,484068285.865262
0.122472,0.090970,0.011442,-0.539207,-0.336523,-0.482805,-0.602418,484068285.880959
0.244877,0.281614,-0.174300,-0.537457,-0.328548,-0.492688,-0.600379,484068285.881367
0.297418,0.563120,-0.189848,-0.536663,-0.320208,-0.500162,-0.599414,484068285.896264
0.263100,0.804318,-0.101134,-0.536061,-0.312949,-0.504743,-0.599946,484068285.912251
0.178782,0.877139,0.054284,-0.534708,-0.308288,-0.507762,-0.601019,484068285.912667
0.014519,0.904394,-0.215327,-0.534141,-0.305337,-0.509865,-0.601249,484068285.928023
0.132054,0.892411,-0.244246,-0.535578,-0.304421,-0.509521,-0.600727,484068285.943357
0.214894,0.791034,-0.269669,-0.538650,-0.305566,-0.506119,-0.600275,484068285.943630
0.198514,0.573405,-0.333469,-0.543211,-0.308047,-0.499367,-0.600551,484068285.958769
0.131620,0.205486,-0.336174,-0.549672,-0.311357,-0.491176,-0.599720,484068285.974363
0.061650,-0.155811,-0.276018,-0.559292,-0.312973,-0.483508,-0.596205,484068285.974621
-0.330919,0.295411,-0.223151,-0.572304,-0.312025,-0.474789,-0.591340,484068285.990334
-0.457179,0.060580,0.642720,-0.582361,-0.311245,-0.467291,-0.587896,484068286.006020
-0.364134,-1.361054,1.289359,-0.584265,-0.309027,-0.469513,-0.585401,484068286.006299
-0.565273,0.011370,-0.437084,-0.587657,-0.308646,-0.470612,-0.581310,484068286.021718
-0.709925,1.205942,-0.014594,-0.591245,-0.316581,-0.464235,-0.578526,484068286.037700
0.206548,-0.393036,0.852961,-0.588385,-0.330981,-0.453767,-0.581679,484068286.037984
-0.101541,-0.743851,0.134078,-0.577789,-0.346204,-0.449620,-0.586638,484068286.053162
-0.227696,-0.492042,-0.234719,-0.567381,-0.360527,-0.446377,-0.590632,484068286.068885
-0.062958,-0.711015,-0.420154,-0.559960,-0.372478,-0.441862,-0.593686,484068286.069131
0.252402,-0.737315,-0.304517,-0.555305,-0.383709,-0.437256,-0.594316,484068286.084437
0.586782,-0.764206,-0.427359,-0.553810,-0.393213,-0.432020,-0.593327,484068286.100241
0.522120,-0.610128,-0.148273,-0.555954,-0.400318,-0.425130,-0.591545,484068286.100475
0.391645,-0.385666,0.019936,-0.558898,-0.406925,-0.417137,-0.589951,484068286.116118
0.243274,-0.177619,0.016683,-0.561630,-0.414484,-0.406977,-0.589189,484068286.132477
0.222256,0.037875,-0.090759,-0.563795,-0.421339,-0.393004,-0.591740,484068286.132869
0.113960,0.220747,0.270278,-0.563740,-0.431654,-0.378739,-0.593657,484068286.148148
-0.227390,0.327463,0.514282,-0.561295,-0.445847,-0.365567,-0.593741,484068286.164599
-0.237166,0.192635,0.407199,-0.557032,-0.460475,-0.354129,-0.593524,484068286.165344
-0.424312,0.180514,-0.016646,-0.551577,-0.473237,-0.345831,-0.593473,484068286.179512
-0.353047,0.268654,-0.354427,-0.546081,-0.482041,-0.337973,-0.595991,484068286.194684
-0.220187,0.248610,-0.476328,-0.540863,-0.486636,-0.329377,-0.601800,484068286.194918
0.006657,0.300577,-0.286922,-0.534752,-0.488917,-0.321938,-0.609390,484068286.210550
0.014941,0.444674,-0.216355,-0.527981,-0.490151,-0.316393,-0.617157,484068286.226349
0.064307,0.457266,0.198357,-0.521114,-0.491200,-0.313574,-0.623566,484068286.226652
0.122765,0.463564,0.374192,-0.513644,-0.492832,-0.315385,-0.627550,484068286.242021
0.092916,0.454665,0.175846,-0.506255,-0.494537,-0.320381,-0.629680,484068286.257912
0.081721,0.431095,-0.136423,-0.500094,-0.497286,-0.326748,-0.629164,484068286.258189
0.035332,0.441444,-0.214859,-0.496323,-0.499093,-0.331744,-0.628105,484068286.273570
-0.004974,0.391431,-0.049635,-0.494518,-0.498751,-0.334937,-0.628106,484068286.289233
0.015527,0.359550,-0.002043,-0.494078,-0.496936,-0.337563,-0.628485,484068286.289499
-0.000177,0.356964,0.024694,-0.494758,-0.494045,-0.340125,-0.628848,484068286.305115
-0.013762,0.314559,0.062418,-0.495681,-0.490184,-0.343126,-0.629511,484068286.320413
-0.032744,0.468837,0.002917,-0.496523,-0.484894,-0.346527,-0.631080,484068286.320646
-0.056027,0.656095,0.130105,-0.497895,-0.475502,-0.349427,-0.635530,484068286.336296
-0.161402,0.801116,0.100483,-0.499149,-0.462212,-0.352123,-0.642822,484068286.352218
-0.192217,0.852994,0.167104,-0.499789,-0.447255,-0.355014,-0.651259,484068286.352448
-0.125315,0.621261,0.262836,-0.498871,-0.432145,-0.360355,-0.659183,484068286.368303
1.443426,-5.548045,0.305596,-0.499003,-0.419799,-0.378603,-0.656829,484068286.384221
-0.042847,-5.678242,-0.405346,-0.493720,-0.422306,-0.402517,-0.644886,484068286.384657
-0.385226,0.746054,-0.275496,-0.483124,-0.436273,-0.419142,-0.632912,484068286.399879
-0.288039,1.060206,-0.687391,-0.473813,-0.450884,-0.428830,-0.623146,484068286.415645
-0.047757,0.675106,-0.428480,-0.472514,-0.460072,-0.429306,-0.617058,484068286.416066
0.064364,0.221312,-0.003542,-0.477326,-0.462876,-0.425363,-0.613981,484068286.431230
0.090816,-0.033677,0.165445,-0.483593,-0.461654,-0.421402,-0.612727,484068286.447069
0.031259,-0.022460,0.208815,-0.488738,-0.459226,-0.418370,-0.612546,484068286.447482
-0.002111,0.067930,0.223171,-0.491455,-0.457729,-0.416173,-0.612989,484068286.462710
0.031467,0.073343,0.197999,-0.491786,-0.457688,-0.415043,-0.613520,484068286.479279
0.096716,0.024117,0.098388,-0.490693,-0.458528,-0.415234,-0.613640,484068286.479740
0.119887,0.014424,-0.089618,-0.490015,-0.458946,-0.415823,-0.613469,484068286.494108
0.050525,0.035641,-0.193528,-0.490539,-0.458360,-0.415763,-0.613530,484068286.509287
-0.059253,0.010415,-0.147101,-0.491965,-0.457024,-0.414799,-0.614037,484068286.509585
-0.048186,-0.012708,-0.120282,-0.493960,-0.455305,-0.413210,-0.614783,484068286.525062
-0.080608,-0.005994,-0.062610,-0.496201,-0.453565,-0.411282,-0.615558,484068286.540698
-0.089120,-0.028666,0.012210,-0.498094,-0.451988,-0.409535,-0.616352,484068286.540978
-0.079204,-0.043024,0.067691,-0.499206,-0.450506,-0.408487,-0.617233,484068286.556672
-0.062062,-0.026834,0.082757,-0.499370,-0.449243,-0.408351,-0.618109,484068286.572216
-0.036118,-0.023932,0.049640,-0.498986,-0.448110,-0.408797,-0.618947,484068286.572483
-0.010765,-0.021246,0.021835,-0.498572,-0.447107,-0.409261,-0.619698,484068286.588004
-0.006915,0.008933,0.021738,-0.498398,-0.446254,-0.409421,-0.620348,484068286.603577
-0.006456,0.047506,0.027287,-0.498567,-0.445443,-0.409191,-0.620946,484068286.603864
-0.011198,0.027941,0.028031,-0.498931,-0.444944,-0.408776,-0.621285,484068286.620197
0.010938,-0.018127,0.030204,-0.499275,-0.444957,-0.408570,-0.621134,484068286.635637
-0.002821,-0.033306,-0.005076,-0.499520,-0.445394,-0.408589,-0.620611,484068286.636301
0.008015,-0.131067,-0.034422,-0.499718,-0.446081,-0.408851,-0.619786,484068286.651916
0.000396,-0.016891,-0.030899,-0.500158,-0.446795,-0.409093,-0.618757,484068286.667249
0.008321,-0.014224,-0.013020,-0.500638,-0.447624,-0.409369,-0.617585,484068286.667877
0.011535,-0.019440,-0.017085,-0.500990,-0.448571,-0.409820,-0.616312,484068286.682551
0.014517,-0.011724,-0.020965,-0.501157,-0.449517,-0.410450,-0.615067,484068286.698524
0.014521,-0.007688,-0.030041,-0.501287,-0.450328,-0.411072,-0.613950,484068286.699174
0.013856,-0.010670,-0.021073,-0.501364,-0.450922,-0.411685,-0.613041,484068286.713906
0.003517,-0.015445,-0.007329,-0.501294,-0.451476,-0.412338,-0.612251,484068286.729699
-0.007037,-0.010624,0.000466,-0.500908,-0.452032,-0.413079,-0.611657,484068286.730073
-0.022446,-0.010221,0.007245,-0.500322,-0.452518,-0.413893,-0.611227,484068286.745692
-0.028166,0.006299,-0.012589,-0.500282,-0.452207,-0.415555,-0.610361,484068286.761401
-0.015995,0.009209,-0.011348,-0.499364,-0.451810,-0.417226,-0.610267,484068286.762241
-0.003517,0.017124,-0.008276,-0.498050,-0.451931,-0.418526,-0.610361,484068286.776858
0.021235,0.015858,-0.009178,-0.495980,-0.452748,-0.419454,-0.610804,484068286.792394
0.043793,0.010370,-0.004295,-0.493374,-0.454346,-0.420076,-0.611301,484068286.792767
0.062730,0.008535,-0.000033,-0.491425,-0.455278,-0.421908,-0.610914,484068286.807919
0.075734,0.014192,-0.002819,-0.489062,-0.456427,-0.423842,-0.610615,484068286.825179
0.172011,0.005753,-0.208258,-0.487388,-0.456936,-0.425033,-0.610745,484068286.826028
0.221039,-0.018481,-0.829094,-0.491281,-0.453742,-0.421183,-0.612671,484068286.839758
0.480545,0.138727,-2.080170,-0.508192,-0.438332,-0.403351,-0.622024,484068286.855335
0.275743,0.186019,-1.905438,-0.532958,-0.404411,-0.370107,-0.644538,484068286.855756
0.337186,0.051169,1.010384,-0.539073,-0.371977,-0.350746,-0.669336,484068286.871145
0.061971,-0.067994,0.510685,-0.528907,-0.356052,-0.352557,-0.684973,484068286.887099
0.165739,-0.071586,0.478060,-0.511301,-0.350963,-0.363818,-0.695005,484068286.887863
0.169121,-0.059581,0.074824,-0.496731,-0.348406,-0.373192,-0.701854,484068286.902646
0.119693,0.003074,0.557114,-0.492295,-0.347536,-0.375843,-0.703993,484068286.918128
0.038957,0.035066,0.572281,-0.490882,-0.353685,-0.378559,-0.700454,484068286.918550
0.041521,0.004267,0.416214,-0.489087,-0.365634,-0.383133,-0.693048,484068286.933767
0.040633,0.002566,0.154229,-0.486512,-0.380468,-0.389005,-0.683538,484068286.949628
0.042563,-0.015182,-0.094149,-0.484541,-0.395122,-0.394402,-0.673458,484068286.950041
0.022251,-0.026803,-0.210487,-0.483950,-0.407960,-0.398232,-0.663907,484068286.965697
-0.009326,-0.004636,-0.108018,-0.483360,-0.418970,-0.401453,-0.655487,484068286.980818
-0.057767,0.016888,0.011880,-0.480838,-0.429385,-0.405615,-0.647997,484068286.981179
-0.035306,0.022338,-0.158304,-0.476535,-0.439909,-0.410914,-0.640737,484068286.996825
-0.014558,0.059086,-0.313001,-0.471902,-0.449882,-0.416483,-0.633606,484068287.012552
0.026865,0.086714,-0.392177,-0.468349,-0.458423,-0.421018,-0.627090,484068287.012929
0.052226,0.123206,-0.305561,-0.466173,-0.465140,-0.424326,-0.621511,484068287.028389
0.057207,0.124898,-0.193711,-0.464410,-0.470390,-0.427011,-0.617024,484068287.043845
0.066931,0.111601,-0.153579,-0.462479,-0.474384,-0.429257,-0.613850,484068287.044348
0.093833,0.097660,-0.137814,-0.460332,-0.476946,-0.431009,-0.612248,484068287.059119
0.102857,0.083012,-0.164659,-0.458196,-0.477996,-0.432145,-0.612231,484068287.075217
0.106476,0.070231,-0.175553,-0.456454,-0.477643,-0.432435,-0.613601,484068287.075453
0.089072,0.043161,-0.115044,-0.454936,-0.476426,-0.432270,-0.615787,484068287.091268
0.082941,0.006620,-0.050264,-0.453261,-0.474903,-0.432114,-0.618304,484068287.107245
0.056037,-0.015719,0.007704,-0.451364,-0.473445,-0.432273,-0.620693,484068287.107696
0.051260,-0.004951,0.027942,-0.449146,-0.472417,-0.432929,-0.622625,484068287.122406
0.058322,0.004040,0.047175,-0.446551,-0.472088,-0.434111,-0.623918,484068287.138424
0.053826,0.022133,0.051506,-0.443566,-0.472519,-0.435909,-0.624467,484068287.138869
0.031046,0.047009,0.027293,-0.440348,-0.473669,-0.438067,-0.624363,484068287.154070
0.038961,0.068813,-0.006840,-0.437268,-0.475304,-0.440309,-0.623708,484068287.169953
0.029939,0.104509,-0.024987,-0.434543,-0.477246,-0.442335,-0.622694,484068287.170478
0.052422,0.115304,-0.030851,-0.432127,-0.479310,-0.444051,-0.621568,484068287.185700
0.083414,0.101347,-0.036735,-0.430096,-0.481242,-0.445464,-0.620472,484068287.201184
0.097787,0.084318,-0.051713,-0.428366,-0.482945,-0.446482,-0.619614,484068287.201697
0.111129,0.068787,-0.056201,-0.426890,-0.484283,-0.447138,-0.619115,484068287.216950
0.099735,0.068247,-0.054187,-0.425424,-0.485335,-0.447592,-0.618971,484068287.232658
0.075977,0.058903,-0.051217,-0.423840,-0.486157,-0.448034,-0.619093,484068287.233031
0.059428,0.055649,-0.054001,-0.422038,-0.486755,-0.448529,-0.619496,484068287.248863
0.041112,0.051844,-0.049559,-0.417572,-0.486782,-0.448883,-0.622239,484068287.264143
0.026971,0.057752,-0.037350,-0.415518,-0.486744,-0.449596,-0.623128,484068287.264526
0.024310,0.058463,-0.033192,-0.413355,-0.486340,-0.450412,-0.624292,484068287.280134
0.029531,0.055619,-0.034626,-0.411219,-0.485483,-0.451306,-0.625722,484068287.295677
0.035461,0.048462,-0.031080,-0.407907,-0.484163,-0.452086,-0.628344,484068287.296036
0.038802,0.045425,-0.027479,-0.406060,-0.482521,-0.453073,-0.630090,484068287.311319
0.047366,0.037257,-0.027328,-0.404368,-0.480556,-0.454003,-0.632008,484068287.327691
0.054476,0.040566,-0.029029,-0.402869,-0.478288,-0.454840,-0.634080,484068287.328107
0.063520,0.025895,-0.028453,-0.399416,-0.476197,-0.454681,-0.637941,484068287.342727
0.081473,0.007183,-0.009441,-0.398620,-0.473419,-0.455123,-0.640187,484068287.358615
0.101154,-0.009447,-0.000101,-0.398235,-0.470519,-0.455268,-0.642458,484068287.359030
0.099435,-0.005911,0.016240,-0.397848,-0.468214,-0.454767,-0.644732,484068287.374236
0.106271,-0.003933,0.028913,-0.398118,-0.465832,-0.454627,-0.646388,484068287.390110
0.114517,0.011587,0.041783,-0.398580,-0.464095,-0.454547,-0.647408,484068287.390507
0.134400,0.025693,0.043485,-0.399121,-0.462974,-0.454706,-0.647765,484068287.406458
0.133198,0.035846,0.036284,-0.397221,-0.465729,-0.452007,-0.648846,484068287.422438
0.143889,0.047084,0.023858,-0.397811,-0.465334,-0.452443,-0.648464,484068287.423216
0.150366,0.049158,0.012423,-0.398546,-0.465118,-0.452922,-0.647833,484068287.436693
0.140314,0.061219,0.004450,-0.399381,-0.465071,-0.453274,-0.647107,484068287.452405
0.148709,0.067335,-0.001883,-0.400337,-0.465144,-0.453403,-0.646372,484068287.452687
0.183679,0.075597,-0.026596,-0.401400,-0.465430,-0.453361,-0.645536,484068287.468220
0.190438,0.075701,-0.037560,-0.402617,-0.465948,-0.453020,-0.644644,484068287.483863
0.221281,0.069084,-0.026521,-0.403979,-0.466803,-0.452494,-0.643541,484068287.484143
0.218495,0.054987,0.004965,-0.405285,-0.468125,-0.452049,-0.642071,484068287.500482
0.218309,0.026566,0.061896,-0.406130,-0.469963,-0.452025,-0.640208,484068287.515257
0.241117,-0.020314,0.094368,-0.406255,-0.472090,-0.452930,-0.637920,484068287.516384
0.221139,-0.085482,0.069404,-0.405836,-0.474418,-0.454778,-0.635139,484068287.531871
0.279344,-0.134085,0.030150,-0.405254,-0.477347,-0.457565,-0.631303,484068287.547969
0.228288,-0.191205,0.124165,-0.400162,-0.486624,-0.465734,-0.621417,484068287.548381
-0.312009,-0.269964,0.601236,-0.374711,-0.518302,-0.493540,-0.589383,484068287.563017
0.222064,-0.380963,-0.939256,-0.355295,-0.540654,-0.513126,-0.564057,484068287.578889
0.091334,-0.158524,0.025908,-0.348881,-0.541655,-0.520448,-0.560380,484068287.579311
0.085375,-0.127417,-0.261777,-0.347279,-0.531912,-0.522986,-0.568290,484068287.594769
0.029738,-0.100572,-0.147421,-0.352558,-0.516072,-0.519107,-0.583009,484068287.610336
0.044655,-0.043245,0.068070,-0.360650,-0.500478,-0.511957,-0.597791,484068287.610984
0.039616,0.061121,0.171932,-0.368415,-0.489139,-0.504555,-0.608635,484068287.627042
-0.058437,0.175176,0.180360,-0.374972,-0.483671,-0.498120,-0.614276,484068287.641844
-0.124501,0.220859,0.206764,-0.380298,-0.483823,-0.492451,-0.615451,484068287.642254
-0.127113,0.188682,0.229023,-0.384708,-0.488032,-0.487702,-0.613166,484068287.657644
-0.126595,0.145595,0.240716,-0.388527,-0.494729,-0.484198,-0.608147,484068287.673880
-0.112966,0.091531,0.236252,-0.391950,-0.502944,-0.482364,-0.600622,484068287.674282
-0.095878,-0.012387,0.220990,-0.395326,-0.511539,-0.482533,-0.590938,484068287.688960
-0.128377,-0.149873,0.163479,-0.399305,-0.519109,-0.484419,-0.580017,484068287.704535
-0.362158,-0.351850,-0.186418,-0.405182,-0.524491,-0.486158,-0.569550,484068287.704915
-0.691737,-0.225532,-0.298826,-0.413502,-0.527095,-0.485758,-0.561450,484068287.720349
-0.735684,-0.164986,-0.296785,-0.423666,-0.527059,-0.481282,-0.557749,484068287.736248
-0.852694,-0.064418,-0.316265,-0.435162,-0.524495,-0.472776,-0.558590,484068287.736646
-0.755618,0.016557,-0.259408,-0.447994,-0.518183,-0.460430,-0.564617,484068287.751754
-0.525776,0.062773,-0.128436,-0.461553,-0.508006,-0.446976,-0.573683,484068287.768203
-0.428302,0.114808,-0.078226,-0.475419,-0.494709,-0.434171,-0.583725,484068287.768729
-0.422872,0.179600,-0.105731,-0.489082,-0.480053,-0.422169,-0.593398,484068287.783403
-0.392164,0.203866,-0.183250,-0.502103,-0.466156,-0.410381,-0.601812,484068287.799007
-0.263847,0.129706,-0.287512,-0.514808,-0.452601,-0.398908,-0.609096,484068287.799374
-0.113165,0.058297,-0.335447,-0.527214,-0.439473,-0.388899,-0.614546,484068287.814830
-0.056770,0.126145,-0.192402,-0.538352,-0.427334,-0.381360,-0.618165,484068287.830649
-0.057226,0.192217,-0.030231,-0.546730,-0.417055,-0.376997,-0.620503,484068287.831072
0.000799,0.198596,0.080381,-0.550676,-0.410150,-0.376901,-0.621674,484068287.846431
0.014466,0.219142,0.116005,-0.549807,-0.406532,-0.381219,-0.622187,484068287.862134
0.071727,0.178073,0.104114,-0.544896,-0.405592,-0.389228,-0.622161,484068287.862485
0.102164,0.153018,0.103402,-0.536832,-0.407196,-0.400129,-0.621208,484068287.877690
0.153345,0.095022,0.120393,-0.526339,-0.411035,-0.413530,-0.618878,484068287.894518
0.180342,0.044727,0.161177,-0.513841,-0.416944,-0.429113,-0.614807,484068287.894934
0.138311,-0.081283,-0.223478,-0.504877,-0.422367,-0.441053,-0.610063,484068287.910295
0.147117,-0.313496,-0.576225,-0.510708,-0.419627,-0.438134,-0.609204,484068287.924658
0.249770,-0.261069,0.062354,-0.523734,-0.409634,-0.429054,-0.611404,484068287.925299
0.099512,-0.043540,0.480564,-0.535339,-0.399012,-0.421114,-0.613892,484068287.940549
0.100055,0.033223,0.228833,-0.542568,-0.391340,-0.417356,-0.615051,484068287.956575
0.090523,0.008443,0.022162,-0.546200,-0.387294,-0.417990,-0.613966,484068287.957232
0.048028,0.023919,-0.147775,-0.548357,-0.385916,-0.421101,-0.610776,484068287.972167
0.032376,0.037238,-0.214330,-0.550918,-0.384845,-0.424334,-0.606897,484068287.988137
0.057915,0.018365,-0.198954,-0.554751,-0.382836,-0.426519,-0.603132,484068287.988557
0.087221,-0.004652,-0.143042,-0.559841,-0.379677,-0.427791,-0.599516,484068288.003761
0.108964,-0.022153,-0.081193,-0.565598,-0.375862,-0.428668,-0.595877,484068288.019847
0.126048,-0.015836,-0.048529,-0.571389,-0.371693,-0.429681,-0.592227,484068288.020266
0.124950,-0.002363,-0.044195,-0.576684,-0.367400,-0.430884,-0.588890,484068288.035286
0.122775,0.022522,-0.068730,-0.581248,-0.362742,-0.431981,-0.586482,484068288.051800
0.107581,0.044140,-0.145868,-0.585129,-0.357669,-0.432527,-0.585335,484068288.052263
0.068258,0.066060,-0.384844,-0.588853,-0.352205,-0.431962,-0.585332,484068288.066323
0.071133,0.086460,-0.454225,-0.592895,-0.346668,-0.430132,-0.585904,484068288.082587
0.081906,0.116730,-0.461705,-0.597424,-0.341296,-0.427497,-0.586385,484068288.083028
0.077908,0.167126,-0.448287,-0.602226,-0.336157,-0.424408,-0.586686,484068288.097922
0.096502,0.173755,-0.411916,-0.607018,-0.331204,-0.421304,-0.586801,484068288.113780
0.103456,0.157306,-0.409277,-0.611484,-0.326854,-0.418348,-0.586718,484068288.114178
0.104957,0.091259,-0.398854,-0.615371,-0.323332,-0.415458,-0.586659,484068288.129687
0.135709,-0.039004,-0.334195,-0.618356,-0.320795,-0.412806,-0.586786,484068288.145213
0.125276,-0.147538,-0.287024,-0.620555,-0.318641,-0.409792,-0.587750,484068288.145626
0.028849,-0.132632,-0.264630,-0.621836,-0.316911,-0.405685,-0.590176,484068288.160942
-0.001720,-0.053594,-0.259581,-0.621684,-0.316307,-0.401111,-0.593775,484068288.176521
0.084862,0.126194,-0.336324,-0.619673,-0.317074,-0.396587,-0.598489,484068288.177047
0.091907,0.227926,-0.343493,-0.616174,-0.319202,-0.391676,-0.604176,484068288.192810
0.032928,0.343009,-0.300007,-0.611335,-0.322859,-0.385911,-0.610823,484068288.208004
-0.024352,0.461264,-0.255238,-0.604810,-0.328785,-0.378845,-0.618533,484068288.208651
-0.025569,0.521162,-0.180731,-0.596404,-0.337415,-0.370424,-0.627088,484068288.223885
0.017278,0.468020,-0.081513,-0.585993,-0.348572,-0.361331,-0.636043,484068288.239868
0.099364,0.155099,-0.096370,-0.574115,-0.361600,-0.352289,-0.644616,484068288.240284
0.354589,-0.583209,-0.069811,-0.562404,-0.374871,-0.345678,-0.650908,484068288.255325
0.424366,-0.998669,-0.469390,-0.553962,-0.385052,-0.341869,-0.654207,484068288.271835
0.442844,-1.056386,-0.256824,-0.548958,-0.391591,-0.343358,-0.653764,484068288.272224
0.202862,-0.898130,-0.102452,-0.546088,-0.393438,-0.348897,-0.652124,484068288.286764
-0.167935,-0.714954,0.073882,-0.544470,-0.387311,-0.352396,-0.655256,484068288.302662
-0.664964,-0.943048,0.671206,-0.541218,-0.374315,-0.351350,-0.665977,484068288.303039
-0.490283,-0.980852,0.685831,-0.533354,-0.359966,-0.350777,-0.680377,484068288.318178
-0.180235,-0.738461,0.532255,-0.520840,-0.348606,-0.355223,-0.693553,484068288.334112
-0.057627,-0.476673,0.334310,-0.505774,-0.342432,-0.365015,-0.702636,484068288.334532
-0.008934,-0.221482,0.303397,-0.489622,-0.341609,-0.377476,-0.707873,484068288.349753
0.023182,-0.028850,0.359660,-0.472815,-0.345108,-0.390293,-0.710646,484068288.365756
0.058194,0.094286,0.384404,-0.455951,-0.350639,-0.401357,-0.712793,484068288.366492
0.108930,0.153472,0.418990,-0.439713,-0.356215,-0.409862,-0.715385,484068288.381239
0.166135,0.217428,0.421770,-0.424358,-0.361445,-0.416070,-0.718445,484068288.396886
0.216308,0.225166,0.450940,-0.409648,-0.366832,-0.420948,-0.721405,484068288.397264
0.207049,0.228337,0.384196,-0.395964,-0.373214,-0.425009,-0.723389,484068288.412781
0.244796,0.199101,0.130406,-0.384307,-0.380889,-0.428303,-0.723732,484068288.428310
0.086513,0.248300,0.081904,-0.375438,-0.389709,-0.431072,-0.722046,484068288.428679
-0.155455,0.265912,0.068645,-0.369155,-0.398958,-0.432837,-0.719172,484068288.444374
-0.271266,0.243246,0.024647,-0.364739,-0.407821,-0.433457,-0.716074,484068288.459920
-0.309563,0.214664,-0.021518,-0.361558,-0.415139,-0.433288,-0.713580,484068288.460281
-0.332764,0.206816,-0.064904,-0.359087,-0.420041,-0.433090,-0.712078,484068288.475751
-0.407154,0.224490,-0.076883,-0.356647,-0.422766,-0.433253,-0.711592,484068288.492287
-0.442892,0.216341,-0.057841,-0.353619,-0.424117,-0.434165,-0.711744,484068288.492736
-0.481318,0.212351,-0.011440,-0.349636,-0.424684,-0.436193,-0.712133,484068288.506890
-0.557421,0.188343,0.013554,-0.344712,-0.424686,-0.438836,-0.712909,484068288.523353
-0.495203,0.146739,0.052865,-0.339416,-0.423909,-0.442127,-0.713878,484068288.523785
-0.425049,0.146500,0.124442,-0.334410,-0.422497,-0.445982,-0.714679,484068288.538005
-0.408847,0.142667,0.114933,-0.330231,-0.420934,-0.450177,-0.714914,484068288.553631
-0.367834,0.156244,0.083122,-0.327557,-0.419293,-0.454276,-0.714516,484068288.553904
-0.287205,0.149356,0.048462,-0.326637,-0.417720,-0.457813,-0.713601,484068288.569452
-0.216606,0.154424,0.006353,-0.327293,-0.416461,-0.460803,-0.712109,484068288.586617
-0.131246,0.169640,-0.000642,-0.329417,-0.415514,-0.463250,-0.710093,484068288.587047
-0.076566,0.180539,0.002045,-0.332807,-0.415253,-0.465262,-0.707345,484068288.601480
-0.009860,0.188176,0.021517,-0.337361,-0.415986,-0.466813,-0.703725,484068288.617511
0.065235,0.193583,0.057728,-0.343226,-0.417465,-0.467676,-0.699427,484068288.617867
0.099939,0.196640,0.059172,-0.350736,-0.418353,-0.466786,-0.695755,484068288.632832
0.174064,0.183313,0.027554,-0.359739,-0.418725,-0.463805,-0.692923,484068288.648519
0.296838,0.146243,0.018841,-0.369023,-0.420998,-0.460296,-0.688992,484068288.648894
0.258318,0.140944,0.036186,-0.377197,-0.427140,-0.457747,-0.682453,484068288.664489
0.268047,0.104204,0.138357,-0.382364,-0.436851,-0.456827,-0.673994,484068288.680140
0.309151,-0.109525,0.191449,-0.382604,-0.450051,-0.458289,-0.664108,484068288.680497
0.432116,-0.330839,0.213954,-0.378456,-0.465344,-0.462613,-0.652851,484068288.695692
0.488711,-0.405782,0.134683,-0.369693,-0.479789,-0.469611,-0.642336,484068288.711870
0.573348,-0.435862,-0.269340,-0.357523,-0.491338,-0.477410,-0.634700,484068288.712448
0.692512,-0.428671,-0.879191,-0.347507,-0.498083,-0.482664,-0.631021,484068288.727355
0.766081,-0.294278,-1.151074,-0.343924,-0.499886,-0.483360,-0.631025,484068288.743140
0.659600,-0.185711,-0.907667,-0.344963,-0.499522,-0.480001,-0.633306,484068288.743640
0.508609,-0.137737,-0.357895,-0.346060,-0.499848,-0.475605,-0.635762,484068288.758691
0.386680,-0.085186,-0.009389,-0.345383,-0.501264,-0.472915,-0.637022,484068288.774466
0.164330,-0.059079,0.351038,-0.342603,-0.503607,-0.472927,-0.636666,484068288.774844
0.041795,-0.224838,0.396131,-0.337190,-0.507043,-0.475684,-0.634771,484068288.790650
0.083563,-0.515984,0.440254,-0.328968,-0.511397,-0.480893,-0.631660,484068288.806287
0.196346,-0.782378,0.420559,-0.318910,-0.515875,-0.489358,-0.626657,484068288.806634
0.129624,-0.676092,0.225864,-0.309103,-0.519638,-0.500917,-0.619285,484068288.821646
0.018449,-0.322063,0.169414,-0.300932,-0.522558,-0.514195,-0.609899,484068288.837670
-0.174402,-0.209898,-0.086883,-0.298204,-0.522462,-0.526563,-0.600699,484068288.838080
-0.439106,-0.147888,-0.075392,-0.304441,-0.517711,-0.535056,-0.594143,484068288.853362
-0.759770,-0.063332,0.033021,-0.312516,-0.515415,-0.539410,-0.587977,484068288.868828
-1.233768,0.091593,0.039775,-0.316901,-0.521153,-0.538574,-0.581301,484068288.869204
-1.370661,0.261619,0.112277,-0.315993,-0.534244,-0.532829,-0.575174,484068288.884751
-0.910071,-0.308253,-0.303547,-0.313469,-0.548378,-0.523028,-0.572242,484068288.900663
-0.666648,-0.593671,-0.864241,-0.317096,-0.553770,-0.512231,-0.574812,484068288.901111
-0.774098,-0.259736,-0.482556,-0.331289,-0.536689,-0.502596,-0.591278,484068288.916278
-0.835919,-0.125999,-0.220387,-0.347161,-0.514888,-0.493113,-0.609269,484068288.932091
-0.654436,-0.031140,-0.112092,-0.360433,-0.496464,-0.484016,-0.623971,484068288.932500
-0.376339,0.027951,-0.074857,-0.370622,-0.482107,-0.476830,-0.634701,484068288.947284
-0.253267,0.099008,0.089704,-0.378367,-0.471279,-0.472346,-0.641579,484068288.963852
-0.275004,0.201171,0.387526,-0.382055,-0.464656,-0.472145,-0.644367,484068288.964077
-0.271703,0.307165,0.544833,-0.380147,-0.464066,-0.477194,-0.642196,484068288.978858
-0.265438,0.266374,0.437119,-0.375517,-0.471744,-0.484653,-0.633684,484068288.996099
-0.231297,0.162842,0.232852,-0.373198,-0.484954,-0.490272,-0.620626,484068288.996310
-0.160445,0.100252,0.077758,-0.376507,-0.493864,-0.493316,-0.609082,484068289.011769
-0.128823,0.230206,-0.328627,-0.388725,-0.489420,-0.492769,-0.605425,484068289.028634
-0.129605,0.281536,-0.182889,-0.407722,-0.475262,-0.488045,-0.608030,484068289.028854
-0.035542,0.204101,-0.095844,-0.427704,-0.459779,-0.481300,-0.611574,484068289.042611
0.060554,0.067949,-0.166108,-0.446132,-0.446683,-0.474495,-0.613429,484068289.057981
0.120913,0.004429,-0.200970,-0.462813,-0.435811,-0.468536,-0.613471,484068289.058429
0.201884,0.016012,-0.138037,-0.477385,-0.426610,-0.463815,-0.612359,484068289.072724
0.289402,0.111542,0.036535,-0.487985,-0.420231,-0.461330,-0.610288,484068289.089275
0.349871,0.147800,0.152527,-0.493555,-0.417350,-0.461523,-0.607634,484068289.089949
0.431658,0.155680,0.196386,-0.495205,-0.417266,-0.464194,-0.604305,484068289.104995
0.527573,0.092166,0.077138,-0.496503,-0.418803,-0.468073,-0.599163,484068289.120490
0.444853,0.025800,-0.041342,-0.500561,-0.418987,-0.471067,-0.593283,484068289.120862
0.037872,0.029776,0.007541,-0.506276,-0.417942,-0.472671,-0.587870,484068289.136450
0.057818,0.059730,-0.047672,-0.512157,-0.416876,-0.474042,-0.582404,484068289.152574
0.075363,0.044563,-0.101806,-0.517713,-0.416050,-0.475897,-0.576540,484068289.152963
0.052825,0.054017,-0.177052,-0.523037,-0.414912,-0.478216,-0.570605,484068289.167910
0.026599,0.061909,-0.208478,-0.528461,-0.412819,-0.480535,-0.565151,484068289.183581
-0.025961,0.096504,-0.210595,-0.534080,-0.409695,-0.482586,-0.560374,484068289.183965
-0.077666,0.137995,-0.192825,-0.539599,-0.405960,-0.484160,-0.556434,484068289.199208
-0.101940,0.154049,-0.254683,-0.544881,-0.401606,-0.485034,-0.553678,484068289.215595
-0.114728,0.146670,-0.379576,-0.550553,-0.396102,-0.484544,-0.552459,484068289.216128
-0.105697,0.149760,-0.502451,-0.557318,-0.389776,-0.481949,-0.552446,484068289.230711
-0.087571,0.168471,-0.512215,-0.564873,-0.383388,-0.477539,-0.553071,484068289.246508
0.004820,0.179920,-0.410942,-0.572075,-0.377894,-0.472310,-0.553940,484068289.246941
0.118598,0.097936,-0.349765,-0.577732,-0.374204,-0.467925,-0.554296,484068289.262170
0.128117,-0.071784,-0.278921,-0.581509,-0.372561,-0.465495,-0.553497,484068289.278123
0.032857,-0.251238,-0.275191,-0.583557,-0.372159,-0.464558,-0.552399,484068289.278539
-0.097237,-0.310573,-0.274375,-0.584948,-0.371344,-0.463151,-0.552658,484068289.293887
-0.108797,-0.256196,-0.276895,-0.585807,-0.370030,-0.460683,-0.554689,484068289.309529
-0.097184,-0.112720,-0.326938,-0.585299,-0.369189,-0.457686,-0.558254,484068289.309983
-0.087272,0.038057,-0.368575,-0.582756,-0.369769,-0.454201,-0.563354,484068289.326248
-0.037389,0.199203,-0.354220,-0.577842,-0.372439,-0.450070,-0.569935,484068289.340853
-0.017147,0.346829,-0.321244,-0.570439,-0.377789,-0.444826,-0.577932,484068289.341278
-0.013730,0.471613,-0.251422,-0.560723,-0.385887,-0.438088,-0.587162,484068289.356675
0.000466,0.547908,-0.156610,-0.548840,-0.396455,-0.429850,-0.597351,484068289.372336
0.112187,0.425356,0.015275,-0.534850,-0.409169,-0.420588,-0.607966,484068289.372751
0.230012,-0.122603,-0.023607,-0.519434,-0.423151,-0.410657,-0.618459,484068289.388453
0.536435,-0.997242,-0.042808,-0.504483,-0.436743,-0.402665,-0.626589,484068289.403593
0.609149,-1.335465,-0.106261,-0.492077,-0.447323,-0.400158,-0.630584,484068289.403822
0.526096,-1.121799,-0.081665,-0.483537,-0.452817,-0.404243,-0.630664,484068289.418980
0.158932,-0.807005,-0.037589,-0.480602,-0.449793,-0.409132,-0.631917,484068289.435576
-0.214786,-0.720070,0.424777,-0.480409,-0.437590,-0.410938,-0.639415,484068289.436192
-0.300706,-0.994442,0.757664,-0.478095,-0.420489,-0.412898,-0.651252,484068289.451217
-0.412775,-1.113003,0.782162,-0.470990,-0.405087,-0.418150,-0.662740,484068289.466601
-0.468497,-0.797502,0.660269,-0.458757,-0.396359,-0.426855,-0.670997,484068289.466998
-0.101741,-0.473025,0.545329,-0.442803,-0.394767,-0.439541,-0.674454,484068289.482490
0.045429,-0.058179,0.339890,-0.425034,-0.397569,-0.454392,-0.674398,484068289.498588
0.047081,0.052640,0.260865,-0.407161,-0.401991,-0.468588,-0.673088,484068289.499100
0.044105,0.179416,0.221567,-0.390931,-0.406241,-0.480081,-0.672059,484068289.514141
0.060784,0.265854,0.347550,-0.377358,-0.408641,-0.487978,-0.672674,484068289.529726
0.091915,0.314656,0.476158,-0.365047,-0.410323,-0.493446,-0.674453,484068289.530093
0.124644,0.318571,0.456593,-0.352371,-0.413778,-0.497924,-0.675792,484068289.545429
0.165522,0.258147,0.290984,-0.339893,-0.419769,-0.501740,-0.675665,484068289.561540
0.086154,0.273044,0.134776,-0.329231,-0.427320,-0.504649,-0.674043,484068289.562068
-0.148428,0.289191,0.009773,-0.321296,-0.435339,-0.505584,-0.672037,484068289.577129
-0.253326,0.251299,-0.058444,-0.316323,-0.441917,-0.504540,-0.670887,484068289.593069
-0.317690,0.256638,-0.075696,-0.314039,-0.445693,-0.502277,-0.671159,484068289.593489
-0.442051,0.330948,0.047261,-0.313635,-0.446609,-0.499391,-0.672891,484068289.608724
-0.480907,0.371734,0.153305,-0.314100,-0.445977,-0.496679,-0.675097,484068289.623652
-0.407356,0.326428,0.268806,-0.313253,-0.445961,-0.494993,-0.676737,484068289.623869
-0.373156,0.290017,0.168751,-0.310190,-0.447468,-0.495330,-0.676906,484068289.640050
-0.363049,0.272528,0.107255,-0.306080,-0.448806,-0.497478,-0.676316,484068289.655275
-0.364103,0.246501,0.002948,-0.301925,-0.448662,-0.500799,-0.675829,484068289.655516
-0.355213,0.210085,-0.020429,-0.299201,-0.446613,-0.504355,-0.675752,484068289.670571
-0.336699,0.184488,0.066073,-0.298175,-0.443660,-0.507987,-0.675431,484068289.686509
-0.300445,0.166400,0.105179,-0.298643,-0.440870,-0.511724,-0.674228,484068289.686773
-0.250752,0.170637,0.073903,-0.300865,-0.438859,-0.515128,-0.671957,484068289.702832
-0.204789,0.179700,0.033795,-0.304883,-0.438133,-0.518085,-0.668337,484068289.717752
-0.101233,0.210715,0.079276,-0.310535,-0.439119,-0.520613,-0.663102,484068289.717979
-0.059138,0.230959,0.114868,-0.317393,-0.441951,-0.522768,-0.656243,484068289.734994
0.001719,0.210719,0.101273,-0.324797,-0.446747,-0.524216,-0.648168,484068289.750006
0.062666,0.199405,0.014033,-0.332836,-0.452428,-0.524823,-0.639601,484068289.750421
0.075356,0.189959,-0.011335,-0.341126,-0.458501,-0.524364,-0.631231,484068289.765547
0.117976,0.097090,0.072421,-0.347357,-0.465943,-0.523285,-0.623228,484068289.781470
0.174117,-0.009152,0.125772,-0.349312,-0.475297,-0.522513,-0.615673,484068289.781847
0.292555,-0.219890,0.168084,-0.346892,-0.485689,-0.522550,-0.608862,484068289.797117
0.392051,-0.438646,0.136114,-0.340437,-0.494952,-0.523926,-0.603844,484068289.813492
0.566187,-0.640923,-0.127611,-0.331271,-0.501289,-0.526454,-0.601511,484068289.813852
0.783370,-0.696287,-0.633209,-0.323597,-0.503920,-0.528508,-0.601689,484068289.828761
0.867835,-0.525107,-1.074691,-0.320920,-0.503489,-0.527688,-0.604198,484068289.844533
0.720032,-0.287816,-0.690606,-0.322219,-0.502398,-0.523566,-0.607989,484068289.844932
0.570879,-0.252120,-0.134808,-0.322951,-0.503780,-0.518038,-0.611184,484068289.860146
0.371757,-0.193916,0.176164,-0.320855,-0.508003,-0.513606,-0.612531,484068289.875859
0.268617,-0.168318,0.390902,-0.316124,-0.513566,-0.511623,-0.612011,484068289.876584
0.260389,-0.302847,0.519745,-0.308477,-0.519968,-0.512837,-0.609487,484068289.891388
0.154891,-0.503385,0.603301,-0.297526,-0.526651,-0.517497,-0.605238,484068289.908347
0.163592,-0.594443,0.589983,-0.284261,-0.532496,-0.525708,-0.599395,484068289.909746
0.148698,-0.549080,0.432627,-0.271286,-0.536281,-0.536933,-0.592038,484068289.923306
-0.040650,-0.503790,0.050559,-0.266035,-0.533586,-0.547726,-0.586948,484068289.938775
-0.238988,-0.439054,-0.335359,-0.277452,-0.520940,-0.553877,-0.587249,484068289.939142
-0.385973,-0.137018,-0.007224,-0.295593,-0.507023,-0.556065,-0.588510,484068289.954717
-1.159373,0.147232,0.194848,-0.308154,-0.502709,-0.555600,-0.586203,484068289.970427
-1.054118,0.302692,0.203270,-0.312403,-0.510348,-0.552265,-0.580476,484068289.970802
-0.866942,0.225776,0.269499,-0.311642,-0.524161,-0.547206,-0.573323,484068289.986171
-0.807842,-0.060918,0.205380,-0.308719,-0.538872,-0.542282,-0.565897,484068290.001733
-0.796839,-0.356516,-0.124726,-0.307512,-0.549487,-0.538343,-0.560078,484068290.002142
-0.807116,-0.376481,-0.341674,-0.311550,-0.552977,-0.535211,-0.557407,484068290.017207
-0.918024,-0.145865,-0.368835,-0.320904,-0.550000,-0.532363,-0.557773,484068290.033059
-0.809339,0.033968,-0.204439,-0.333202,-0.543720,-0.529126,-0.559795,484068290.033480
-0.616936,0.122695,-0.070757,-0.346036,-0.537294,-0.525933,-0.561221,484068290.049027
-0.456274,0.203890,-0.073558,-0.358573,-0.532334,-0.522480,-0.561302,484068290.063836
-0.291958,0.248129,-0.080389,-0.370603,-0.528782,-0.518684,-0.560366,484068290.064090
-0.094874,0.171832,-0.264290,-0.383059,-0.523596,-0.514636,-0.560592,484068290.080468
-0.111027,0.252260,-0.278626,-0.398101,-0.511459,-0.509671,-0.565827,484068290.096602
-0.058617,0.248409,-0.258099,-0.414337,-0.495039,-0.503332,-0.574385,484068290.097018
0.034023,0.259764,-0.280877,-0.430132,-0.477789,-0.496057,-0.583636,484068290.111775
0.124435,0.305776,-0.238442,-0.444669,-0.461818,-0.488729,-0.591724,484068290.127601
0.216256,0.315542,-0.204999,-0.457515,-0.447898,-0.482492,-0.597719,484068290.127935
0.273910,0.327015,-0.182061,-0.468745,-0.436209,-0.478065,-0.601210,484068290.143187
0.287633,0.306609,-0.174381,-0.478349,-0.427503,-0.475320,-0.602074,484068290.159898
0.310448,0.262385,-0.083450,-0.486178,-0.422341,-0.474170,-0.600352,484068290.160442
0.394907,0.172922,0.243081,-0.491254,-0.420805,-0.475223,-0.596453,484068290.174591
0.488273,0.063243,0.398732,-0.495133,-0.420448,-0.477357,-0.591774,484068290.190629
0.482465,-0.142499,0.216762,-0.502321,-0.418237,-0.476731,-0.587774,484068290.191046
0.116983,-0.133989,0.272236,-0.511612,-0.413962,-0.474269,-0.584771,484068290.206193
0.083059,-0.083264,0.158527,-0.520397,-0.409809,-0.472859,-0.581074,484068290.221991
0.022340,-0.024597,-0.010328,-0.527877,-0.406486,-0.473541,-0.576085,484068290.222366
-0.037050,0.005924,-0.144795,-0.534504,-0.403685,-0.475637,-0.570187,484068290.237626
-0.039882,0.030127,-0.224971,-0.540435,-0.401589,-0.478317,-0.563798,484068290.253271
-0.006166,0.093934,-0.284607,-0.546093,-0.399805,-0.480642,-0.557604,484068290.253697
0.025739,0.138684,-0.300925,-0.551656,-0.398141,-0.482123,-0.552012,484068290.269191
0.034452,0.151207,-0.317269,-0.556843,-0.396426,-0.482778,-0.547446,484068290.284888
-0.012149,0.119492,-0.382673,-0.561450,-0.394672,-0.482797,-0.543980,484068290.285273
-0.064346,0.070510,-0.501408,-0.566322,-0.392260,-0.481351,-0.541953,484068290.300609
-0.095141,0.059462,-0.588859,-0.572362,-0.388721,-0.477395,-0.541657,484068290.316509
0.015341,0.079446,-0.457155,-0.579413,-0.383884,-0.471331,-0.542919,484068290.316889
0.129869,0.127930,-0.347961,-0.586154,-0.378601,-0.464810,-0.545010,484068290.332771
0.221384,0.174439,-0.255612,-0.591292,-0.374192,-0.459963,-0.546615,484068290.347827
0.164600,0.161222,-0.161133,-0.594271,-0.371411,-0.457815,-0.547085,484068290.348236
0.026490,0.083445,-0.108252,-0.594982,-0.369821,-0.457484,-0.547665,484068290.363600
-0.067815,-0.026170,-0.205300,-0.594004,-0.368081,-0.457043,-0.550262,484068290.379134
-0.200199,0.040931,-0.325740,-0.591704,-0.366549,-0.454778,-0.555612,484068290.379666
-0.216708,0.185567,-0.390442,-0.587229,-0.367160,-0.450594,-0.563312,484068290.394862
-0.205693,0.319716,-0.393411,-0.579953,-0.370703,-0.444718,-0.573113,484068290.411075
-0.212182,0.482009,-0.307498,-0.569516,-0.377900,-0.437169,-0.584574,484068290.411288
-0.226376,0.613494,-0.212394,-0.555916,-0.388614,-0.427366,-0.597741,484068290.426422
-0.018028,0.619034,-0.080176,-0.539625,-0.402068,-0.414824,-0.612428,484068290.442346
0.205775,0.172808,0.075193,-0.520980,-0.417846,-0.401086,-0.626988,484068290.442752
0.554450,-0.683397,-0.071311,-0.500279,-0.435953,-0.390394,-0.638168,484068290.458247
0.848028,-1.560336,-0.565025,-0.482681,-0.452123,-0.385267,-0.643562,484068290.473571
0.813933,-1.786202,-0.384227,-0.472927,-0.460823,-0.387585,-0.643242,484068290.473945
0.414684,-1.376184,-0.470922,-0.471228,-0.460366,-0.393645,-0.641133,484068290.489424
0.435398,-1.373471,-0.458605,-0.475948,-0.448673,-0.397835,-0.643345,484068290.505166
-0.084425,-1.215520,0.641802,-0.481400,-0.429753,-0.401764,-0.649732,484068290.505585
-0.451154,-1.323995,1.160484,-0.480496,-0.410947,-0.408989,-0.658008,484068290.520752
-0.784549,-1.008341,1.212231,-0.469980,-0.397785,-0.418791,-0.667458,484068290.536776
-0.243211,-0.555575,1.168121,-0.450284,-0.391984,-0.434107,-0.674643,484068290.537148
0.076467,-0.170746,0.996049,-0.423972,-0.392645,-0.455308,-0.677327,484068290.552347
0.120937,0.116091,0.022852,-0.398544,-0.396279,-0.474959,-0.677155,484068290.568057
0.142750,0.120745,0.243918,-0.378012,-0.400665,-0.489585,-0.675930,484068290.568427
0.210808,0.148756,0.568197,-0.360511,-0.405935,-0.500827,-0.674107,484068290.583839
0.224891,0.214909,0.637882,-0.343556,-0.412681,-0.510710,-0.671446,484068290.599573
0.191019,0.296177,0.527718,-0.326724,-0.420913,-0.519430,-0.668039,484068290.600135
0.124447,0.386565,0.371202,-0.310770,-0.430683,-0.526288,-0.664045,484068290.615255
0.106600,0.430822,0.178629,-0.296685,-0.442538,-0.530795,-0.659087,484068290.631098
0.131624,0.411350,0.033233,-0.285368,-0.456164,-0.533372,-0.652682,484068290.631909
-0.060091,0.366350,-0.104493,-0.277665,-0.468698,-0.534000,-0.646581,484068290.646716
-0.298003,0.320472,-0.185222,-0.273635,-0.477494,-0.532843,-0.642808,484068290.662612
-0.396648,0.312030,-0.173722,-0.272481,-0.482296,-0.531158,-0.641106,484068290.663030
-0.568360,0.390009,-0.030448,-0.272193,-0.484324,-0.530204,-0.640489,484068290.678474
-0.668045,0.375845,-0.047023,-0.270689,-0.485419,-0.530807,-0.639796,484068290.693884
-0.670127,0.325397,-0.073877,-0.266840,-0.486667,-0.533472,-0.638246,484068290.694276
-0.705431,0.294860,-0.118818,-0.261149,-0.487405,-0.538254,-0.636019,484068290.709604
-0.683168,0.264992,-0.072069,-0.254917,-0.486698,-0.544721,-0.633578,484068290.726412
-0.593654,0.207986,0.004631,-0.249502,-0.483943,-0.551954,-0.631581,484068290.726967
-0.478844,0.157973,0.064527,-0.245922,-0.479517,-0.559051,-0.630117,484068290.740615
-0.373617,0.130396,0.097956,-0.244725,-0.474560,-0.565170,-0.628876,484068290.756374
-0.294496,0.096319,0.089534,-0.246548,-0.469928,-0.569616,-0.627630,484068290.756667
-0.233723,0.106472,0.078391,-0.251578,-0.467004,-0.571950,-0.625691,484068290.771830
-0.170715,0.135807,0.121068,-0.258882,-0.467024,-0.572313,-0.622356,484068290.787711
-0.025908,0.130437,0.300171,-0.268177,-0.469713,-0.570472,-0.618071,484068290.788002
0.112809,0.177943,0.311327,-0.278366,-0.473981,-0.566357,-0.614079,484068290.803612
0.150403,0.248603,0.144430,-0.286793,-0.479308,-0.562712,-0.609400,484068290.819295
0.179824,0.240344,-0.023223,-0.292182,-0.486452,-0.560693,-0.603007,484068290.819574
0.227800,0.116583,-0.031731,-0.293065,-0.496756,-0.560167,-0.594608,484068290.835288
0.365605,-0.145806,-0.085555,-0.288645,-0.510244,-0.561156,-0.584327,484068290.851301
0.465806,-0.453722,-0.089639,-0.281898,-0.524441,-0.563692,-0.572492,484068290.851671
0.462046,-0.597264,-0.006270,-0.273010,-0.536975,-0.567467,-0.561342,484068290.866933
0.605357,-0.622914,-0.216104,-0.262111,-0.546398,-0.572294,-0.552473,484068290.882971
0.711296,-0.445537,-0.789294,-0.253559,-0.552401,-0.575466,-0.547174,484068290.883329
0.744036,-0.214650,-1.212280,-0.251298,-0.554390,-0.574244,-0.547490,484068290.898742
0.722130,-0.093643,-1.134413,-0.253920,-0.553786,-0.568755,-0.552597,484068290.914235
0.486078,-0.173247,-0.089017,-0.256226,-0.553156,-0.561910,-0.559128,484068290.914880
0.370685,-0.217959,0.119724,-0.256058,-0.553399,-0.557015,-0.563842,484068290.930033
0.241056,-0.185497,0.298607,-0.253825,-0.554515,-0.555182,-0.565561,484068290.945667
0.145370,-0.377980,0.477920,-0.248630,-0.556662,-0.556695,-0.564271,484068290.946027
0.135201,-0.697690,0.586123,-0.239786,-0.559280,-0.561628,-0.560609,484068290.961074
0.179289,-0.824384,0.577996,-0.228319,-0.561609,-0.570423,-0.554151,484068290.976943
0.123115,-0.610962,0.484648,-0.215741,-0.563601,-0.582629,-0.544384,484068290.977401
-0.012100,-0.322710,0.244539,-0.204599,-0.565207,-0.596015,-0.532397,484068290.993347
-0.210486,-0.226455,-0.361756,-0.205476,-0.562460,-0.606416,-0.523143,484068291.008849
-0.422790,0.044298,-0.123164,-0.215871,-0.557812,-0.613187,-0.515990,484068291.009222
-0.710118,0.192274,0.107368,-0.223754,-0.558821,-0.616931,-0.507000,484068291.024163
-1.124697,0.410215,0.083347,-0.224397,-0.568428,-0.617313,-0.495439,484068291.039286
-1.210934,0.427006,-0.001284,-0.219012,-0.583949,-0.614663,-0.482935,484068291.039639
-1.343818,0.176507,-0.324622,-0.211075,-0.601117,-0.608569,-0.473021,484068291.055662
-0.911367,-0.433214,-0.783710,-0.208404,-0.613371,-0.599673,-0.469825,484068291.071986
-0.714036,-0.673950,-0.778726,-0.219143,-0.614003,-0.590897,-0.475203,484068291.072434
-0.813655,-0.418214,-0.255466,-0.238737,-0.605158,-0.583607,-0.485995,484068291.087334
-0.821576,-0.188217,0.026231,-0.258616,-0.594023,-0.577342,-0.496921,484068291.103052
-0.644420,-0.113335,0.089660,-0.276057,-0.584702,-0.571507,-0.505269,484068291.103452
-0.426367,-0.069630,0.091559,-0.291067,-0.578687,-0.566119,-0.509815,484068291.118856
-0.278492,0.004521,0.070162,-0.304017,-0.576264,-0.561220,-0.510417,484068291.134327
-0.225472,0.118426,0.043435,-0.315296,-0.576317,-0.556592,-0.508579,484068291.134869
-0.112382,0.215722,-0.021544,-0.325701,-0.576749,-0.552301,-0.506205,484068291.149813
-0.037930,0.236617,-0.162718,-0.336741,-0.572369,-0.548691,-0.507875,484068291.166098
-0.000583,0.248295,-0.182235,-0.349225,-0.560936,-0.545761,-0.515304,484068291.166527
0.065445,0.199142,-0.209634,-0.361779,-0.545271,-0.543634,-0.525602,484068291.181586
0.152918,0.174351,-0.282353,-0.373214,-0.529260,-0.542520,-0.535039,484068291.197335
0.184512,0.197561,-0.263123,-0.382655,-0.516769,-0.542906,-0.540165,484068291.197700
0.240275,0.189925,-0.203395,-0.390050,-0.509294,-0.545229,-0.539635,484068291.213132
0.205258,0.281722,-0.112671,-0.396690,-0.505456,-0.548520,-0.535048,484068291.229261
0.192431,0.325793,0.219138,-0.403408,-0.505042,-0.550908,-0.527916,484068291.229632
0.212266,0.094544,0.502830,-0.412855,-0.505293,-0.550158,-0.521111,484068291.245208
0.064775,0.004323,0.598625,-0.424896,-0.502316,-0.546813,-0.517820,484068291.260486
-0.002814,0.046025,0.467243,-0.436876,-0.497217,-0.543029,-0.516754,484068291.260930
-0.066542,0.086004,0.126962,-0.446326,-0.493078,-0.540961,-0.514809,484068291.276083
-0.115485,0.102694,-0.056784,-0.452585,-0.491401,-0.541140,-0.510745,484068291.291834
-0.116502,0.115389,-0.170659,-0.456395,-0.491997,-0.542856,-0.504925,484068291.292330
-0.060191,0.121928,-0.269792,-0.459206,-0.493811,-0.544714,-0.498564,484068291.307354
0.044483,0.089656,-0.272972,-0.462124,-0.495678,-0.545815,-0.492779,484068291.323555
0.106207,0.048876,-0.256288,-0.465211,-0.497049,-0.546311,-0.487919,484068291.323981
0.121502,0.055465,-0.307042,-0.468381,-0.497757,-0.546117,-0.484369,484068291.338999
0.145804,0.056430,-0.364888,-0.471958,-0.497581,-0.545078,-0.482243,484068291.354910
0.103676,0.039579,-0.460557,-0.476373,-0.495938,-0.543176,-0.481741,484068291.355299
0.042004,0.018687,-0.578812,-0.482513,-0.492319,-0.539726,-0.483217,484068291.370152
0.019972,0.062263,-0.593015,-0.490611,-0.487099,-0.534501,-0.486152,484068291.386148
-0.032467,0.201342,-0.213555,-0.498909,-0.481835,-0.528549,-0.489449,484068291.386532
0.045025,0.227266,-0.126142,-0.504914,-0.477870,-0.523827,-0.492247,484068291.402278
0.111528,0.161963,-0.192251,-0.508002,-0.475370,-0.521398,-0.494067,484068291.417581
0.058266,0.065646,-0.232274,-0.508828,-0.474219,-0.520674,-0.495084,484068291.418178
-0.075412,0.020325,-0.245880,-0.508133,-0.473642,-0.520278,-0.496764,484068291.433247
-0.134909,0.020388,-0.289840,-0.506054,-0.473267,-0.519412,-0.500140,484068291.449071
-0.160453,0.033689,-0.342269,-0.502351,-0.473664,-0.517798,-0.505144,484068291.449458
-0.190192,0.092243,-0.348146,-0.496586,-0.475369,-0.515039,-0.512017,484068291.464724
-0.201753,0.206754,-0.327901,-0.488461,-0.478737,-0.510541,-0.521118,484068291.480949
-0.186623,0.328613,-0.298000,-0.478334,-0.483957,-0.503434,-0.532481,484068291.481342
-0.106435,0.404718,-0.233696,-0.466775,-0.490741,-0.493495,-0.545672,484068291.496509
-0.007398,0.344189,-0.132017,-0.453977,-0.498829,-0.481897,-0.559331,484068291.512033
0.429716,-0.686388,0.049620,-0.440444,-0.507988,-0.471039,-0.571034,484068291.512431
0.653921,-1.260423,0.012663,-0.427421,-0.516680,-0.464238,-0.578651,484068291.527580
0.611312,-1.254496,0.155744,-0.416628,-0.522020,-0.464415,-0.581579,484068291.544740
0.403159,-0.975677,0.196849,-0.407654,-0.526319,-0.471367,-0.578463,484068291.545143
0.083849,-0.829895,0.081892,-0.402155,-0.527987,-0.479795,-0.573844,484068291.559089
-0.137828,-0.842906,0.365958,-0.401250,-0.522122,-0.485736,-0.574845,484068291.576705
-0.217667,-0.866892,0.725993,-0.401247,-0.510374,-0.491582,-0.580402,484068291.577082
-0.367696,-0.749206,0.846085,-0.397576,-0.498379,-0.499772,-0.586327,484068291.590496
-0.436014,-0.473841,0.852002,-0.387298,-0.490452,-0.511054,-0.590154,484068291.606877
-0.130599,-0.206637,0.727592,-0.370488,-0.488331,-0.526262,-0.589338,484068291.607369
-0.035686,0.017565,0.569929,-0.348645,-0.491768,-0.544138,-0.583545,484068291.622393
-0.006373,0.253147,0.040877,-0.325446,-0.497841,-0.560981,-0.575795,484068291.638004
0.019486,0.194808,-0.083826,-0.305825,-0.503032,-0.573450,-0.569723,484068291.638415
0.042134,0.161478,0.010795,-0.292063,-0.505705,-0.581232,-0.566685,484068291.653851
0.038835,0.171421,0.185764,-0.281786,-0.507364,-0.586478,-0.564998,484068291.669426
0.053109,0.170734,0.280465,-0.271393,-0.510834,-0.591074,-0.562162,484068291.669865
0.108421,0.123783,0.244945,-0.259754,-0.516671,-0.595844,-0.557269,484068291.685029
0.001880,0.073247,0.132110,-0.248089,-0.523261,-0.600552,-0.551350,484068291.700825
-0.138733,0.048834,-0.027288,-0.237805,-0.529193,-0.604013,-0.546418,484068291.701197
-0.214444,0.052661,-0.140351,-0.230571,-0.533291,-0.605752,-0.543601,484068291.716697
-0.251413,0.050111,-0.182432,-0.227760,-0.534311,-0.606289,-0.543186,484068291.731773
-0.305936,0.103847,-0.113692,-0.228357,-0.532461,-0.606407,-0.544618,484068291.731995
-0.451304,0.173249,0.124837,-0.230050,-0.529689,-0.606487,-0.546515,484068291.748080
-0.519051,0.181542,0.259113,-0.231139,-0.527302,-0.607060,-0.547728,484068291.764043
-0.557768,0.161050,0.338540,-0.229907,-0.526159,-0.608683,-0.547544,484068291.764484
-0.519689,0.137206,0.302525,-0.225802,-0.526329,-0.611901,-0.545499,484068291.779387
-0.380696,0.117518,0.217307,-0.219551,-0.527608,-0.616680,-0.541418,484068291.795345
-0.309238,0.092723,0.118849,-0.212570,-0.529600,-0.622458,-0.535615,484068291.795773
-0.243742,0.059699,0.059272,-0.205944,-0.531949,-0.628436,-0.528853,484068291.810913
-0.174401,0.033480,0.007916,-0.200573,-0.534131,-0.634003,-0.522030,484068291.826961
-0.139628,0.010417,-0.028471,-0.197165,-0.535823,-0.638763,-0.515754,484068291.827177
-0.130037,0.007301,0.005836,-0.195304,-0.537624,-0.642761,-0.509584,484068291.842872
-0.136881,0.015587,0.026510,-0.194275,-0.540396,-0.646127,-0.502742,484068291.858237
-0.131314,0.038130,0.061634,-0.193291,-0.544790,-0.648945,-0.494685,484068291.858716
-0.098372,0.079641,0.007855,-0.192087,-0.550525,-0.650957,-0.486086,484068291.873779
-0.071987,0.066327,-0.126888,-0.192960,-0.555900,-0.650796,-0.479798,484068291.889817
0.038767,0.084231,0.168788,-0.196907,-0.559960,-0.647786,-0.477541,484068291.890209
0.128263,0.171642,0.292791,-0.199694,-0.563163,-0.645079,-0.476281,484068291.905136
0.145369,0.218593,0.190802,-0.199506,-0.564305,-0.645118,-0.474953,484068291.920751
0.147030,0.246998,-0.040177,-0.196725,-0.564844,-0.647296,-0.472502,484068291.921197
0.148285,0.284551,-0.268081,-0.193380,-0.566018,-0.649593,-0.469314,484068291.936816
0.148394,0.277967,-0.315783,-0.190492,-0.567872,-0.651049,-0.466228,484068291.952520
0.166075,0.244040,-0.277551,-0.187941,-0.569937,-0.651494,-0.464117,484068291.952892
0.197522,0.153364,-0.209352,-0.184997,-0.571678,-0.651204,-0.463567,484068291.968146
0.253658,-0.007334,-0.095100,-0.180562,-0.572976,-0.650981,-0.464025,484068291.984140
0.376979,-0.139717,-0.016007,-0.174856,-0.573917,-0.651946,-0.463693,484068291.984563
0.308841,-0.000801,-0.041714,-0.168876,-0.574356,-0.654689,-0.461495,484068292.000396
0.120327,0.085368,-0.077021,-0.163052,-0.574345,-0.659008,-0.457439,484068292.015482
-0.057182,0.028760,-0.090857,-0.156380,-0.574047,-0.664340,-0.452403,484068292.015867
-0.066232,-0.135039,-0.100921,-0.147622,-0.574189,-0.669912,-0.446914,484068292.031092
0.059517,-0.501284,-0.388437,-0.140801,-0.573043,-0.674250,-0.444054,484068292.047102
0.125910,-0.844073,-0.460270,-0.143456,-0.568845,-0.674712,-0.447883,484068292.047524
0.109545,-1.171227,-0.058420,-0.155525,-0.562637,-0.672657,-0.454736,484068292.062602
-0.145817,-1.275970,0.197668,-0.173319,-0.556543,-0.668957,-0.461212,484068292.079202
-0.562764,-0.936685,0.746695,-0.187474,-0.553626,-0.665349,-0.464394,484068292.079423
-0.962646,-0.389415,1.045200,-0.192010,-0.555570,-0.664087,-0.462020,484068292.097090
-0.710120,0.047003,0.613346,-0.187928,-0.561500,-0.666193,-0.453418,484068292.110021
-0.506783,0.062305,0.344910,-0.178225,-0.570210,-0.671127,-0.438960,484068292.110449
-0.438567,0.066692,0.192441,-0.165724,-0.579926,-0.677169,-0.421502,484068292.126441
-0.320618,0.001404,0.038425,-0.152141,-0.589423,-0.683138,-0.403431,484068292.141257
-0.210791,-0.054904,-0.094827,-0.138980,-0.598319,-0.688477,-0.385614,484068292.141743
-0.161001,-0.099436,-0.220273,-0.127643,-0.606396,-0.692867,-0.368682,484068292.157252
-0.176260,-0.094135,-0.323586,-0.119086,-0.613603,-0.695958,-0.353485,484068292.173373
-0.204738,-0.054302,-0.344942,-0.113375,-0.619977,-0.697720,-0.340530,484068292.175345
-0.221835,-0.038176,-0.285846,-0.109603,-0.625815,-0.698473,-0.329360,484068292.188587
-0.282683,-0.035108,-0.240816,-0.107076,-0.631173,-0.698558,-0.319645,484068292.204460
-0.299100,-0.044087,-0.188605,-0.105248,-0.636218,-0.698247,-0.310805,484068292.204844
-0.321936,-0.029411,-0.132698,-0.103682,-0.641044,-0.697858,-0.302169,484068292.219895
-0.369406,0.039420,-0.070722,-0.102138,-0.645593,-0.697641,-0.293385,484068292.235712
-0.384324,0.093942,-0.070993,-0.100302,-0.649847,-0.697710,-0.284323,484068292.236183
-0.387187,0.134424,-0.088314,-0.098150,-0.653746,-0.698021,-0.275226,484068292.251837
-0.374457,0.188311,-0.134279,-0.095921,-0.657285,-0.698316,-0.266704,484068292.267237
-0.305057,0.196463,-0.144291,-0.093900,-0.660466,-0.698462,-0.259073,484068292.267815
-0.247691,0.177151,-0.145991,-0.092349,-0.663383,-0.698453,-0.252107,484068292.282720
-0.207901,0.149692,-0.131433,-0.091219,-0.666115,-0.698284,-0.245700,484068292.298623
-0.191271,0.118369,-0.120626,-0.090332,-0.668698,-0.697902,-0.240032,484068292.298999
-0.190397,0.086657,-0.087139,-0.089538,-0.671153,-0.697301,-0.235176,484068292.314355
-0.177134,0.059126,-0.060591,-0.088756,-0.673419,-0.696633,-0.230937,484068292.330056
-0.146045,0.045262,-0.028026,-0.088010,-0.675468,-0.696077,-0.226881,484068292.330469
-0.120222,0.025284,-0.015395,-0.087463,-0.677260,-0.695716,-0.222819,484068292.345858
-0.105430,0.019588,-0.009465,-0.087031,-0.678932,-0.695462,-0.218654,484068292.361459
-0.053256,0.015681,-0.016620,-0.086642,-0.680564,-0.695268,-0.214308,484068292.361831
-0.053298,0.017480,-0.038304,-0.086488,-0.682235,-0.695060,-0.209682,484068292.377390
-0.036138,0.003217,-0.057087,-0.086633,-0.683965,-0.694750,-0.204960,484068292.393046
-0.103107,-0.003341,-0.084339,-0.087131,-0.685823,-0.694215,-0.200300,484068292.393418
-0.123219,-0.010675,-0.080981,-0.087759,-0.687865,-0.693388,-0.195843,484068292.409269
-0.139765,-0.028461,-0.075243,-0.088362,-0.689991,-0.692417,-0.191479,484068292.424915
-0.149286,-0.032579,-0.091572,-0.088858,-0.692153,-0.691360,-0.187218,484068292.425282
-0.151870,-0.026548,-0.109779,-0.089296,-0.694266,-0.690283,-0.183114,484068292.440441
-0.145279,-0.015653,-0.131831,-0.089557,-0.696280,-0.689227,-0.179278,484068292.455944
-0.140677,0.003124,-0.146115,-0.089746,-0.697996,-0.688364,-0.175792,484068292.456376
-0.160117,0.011728,-0.181070,-0.089952,-0.699328,-0.687748,-0.172777,484068292.471940
-0.168628,0.022441,-0.184999,-0.090356,-0.700222,-0.687387,-0.170366,484068292.488768
-0.175199,0.020352,-0.172501,-0.091105,-0.700724,-0.687243,-0.168473,484068292.489578
-0.163069,0.017039,-0.149820,-0.092120,-0.700931,-0.687288,-0.166867,484068292.502457
-0.157028,0.020367,-0.117800,-0.093226,-0.700924,-0.687500,-0.165402,484068292.518297
-0.146506,0.024761,-0.097516,-0.094233,-0.700804,-0.687840,-0.163921,484068292.518582
-0.133794,0.025865,-0.092151,-0.095019,-0.700607,-0.688307,-0.162341,484068292.533930
-0.117380,0.025836,-0.106739,-0.095731,-0.700500,-0.688674,-0.160820,484068292.550500
-0.101513,0.013317,-0.096631,-0.096533,-0.700551,-0.688833,-0.159432,484068292.550930
-0.092062,0.009402,-0.076919,-0.097343,-0.700717,-0.688838,-0.158184,484068292.566705
-0.076494,0.004813,-0.062666,-0.098146,-0.701002,-0.688714,-0.156960,484068292.581988
-0.061812,-0.012268,-0.009196,-0.098612,-0.701414,-0.688557,-0.155508,484068292.582592
-0.052210,-0.019981,0.003493,-0.098638,-0.701902,-0.688464,-0.153691,484068292.598232
-0.036270,-0.028623,0.021197,-0.098028,-0.702502,-0.688500,-0.151158,484068292.613604
-0.026179,-0.031816,0.020135,-0.096697,-0.703168,-0.688759,-0.147704,484068292.613977
-0.015921,-0.022798,0.019496,-0.094561,-0.703804,-0.689344,-0.143257,484068292.629578
-0.013684,-0.001346,-0.032877,-0.091983,-0.704267,-0.690272,-0.138100,484068292.644900
-0.040346,0.016900,-0.082219,-0.089387,-0.704632,-0.691241,-0.133003,484068292.645262
-0.040886,0.032906,-0.103502,-0.087272,-0.704939,-0.692011,-0.128708,484068292.660838
-0.054727,0.029744,-0.139429,-0.086201,-0.705252,-0.692360,-0.125804,484068292.676333
-0.046238,0.019500,-0.088674,-0.086012,-0.705436,-0.692536,-0.123917,484068292.676695
-0.057290,0.018204,-0.047617,-0.085911,-0.705515,-0.692738,-0.122404,484068292.692209
-0.096673,0.003137,-0.067426,-0.085375,-0.705597,-0.692940,-0.121153,484068292.708221
-0.067559,-0.007542,-0.068163,-0.084372,-0.705563,-0.693360,-0.119641,484068292.708889
-0.097047,-0.003166,-0.084344,-0.082987,-0.705356,-0.694100,-0.117520,484068292.723620
-0.100827,0.003043,-0.087290,-0.081180,-0.704999,-0.695127,-0.114823,484068292.739622
-0.106688,0.006105,-0.121729,-0.078939,-0.704355,-0.696598,-0.111376,484068292.740109
-0.093439,0.023628,-0.168698,-0.077062,-0.703735,-0.697942,-0.108145,484068292.755196
-0.136757,0.029916,-0.171392,-0.076222,-0.703271,-0.698830,-0.106003,484068292.770990
-0.139073,0.011661,-0.121398,-0.076604,-0.702923,-0.699247,-0.105284,484068292.771538
-0.116294,-0.010028,-0.064408,-0.077821,-0.702632,-0.699401,-0.105308,484068292.786784
-0.128821,-0.018818,-0.032112,-0.079008,-0.702633,-0.699259,-0.105366,484068292.801968
-0.173164,-0.012127,-0.021087,-0.079560,-0.703061,-0.698771,-0.105330,484068292.802195
-0.133201,-0.031874,-0.025576,-0.079594,-0.703753,-0.698097,-0.105151,484068292.818822
-0.120157,-0.024002,-0.045113,-0.079492,-0.704508,-0.697413,-0.104710,484068292.833819
-0.114860,-0.029604,-0.064963,-0.079392,-0.705320,-0.696684,-0.104170,484068292.834230
-0.121765,-0.037621,-0.076588,-0.079409,-0.706107,-0.695996,-0.103425,484068292.849081
-0.111656,-0.027122,-0.089212,-0.079497,-0.706908,-0.695310,-0.102492,484068292.864558
-0.070706,-0.017903,-0.074477,-0.079721,-0.707640,-0.694722,-0.101249,484068292.864828
-0.103321,0.007508,-0.095836,-0.080031,-0.708251,-0.694296,-0.099646,484068292.881132
-0.153401,0.027579,-0.134042,-0.080303,-0.708860,-0.693806,-0.098501,484068292.896822
-0.133402,0.017833,-0.153902,-0.080705,-0.709490,-0.693173,-0.098094,484068292.897193
-0.106925,0.015181,-0.137667,-0.081426,-0.709982,-0.692582,-0.098111,484068292.912468
-0.092316,0.015283,-0.153349,-0.082374,-0.710253,-0.692144,-0.098449,484068292.928331
-0.075469,0.012395,-0.165739,-0.083786,-0.710394,-0.691767,-0.098890,484068292.928744
-0.080334,0.005369,-0.145685,-0.085304,-0.710496,-0.691453,-0.099047,484068292.943954
-0.048897,-0.010327,-0.126592,-0.086414,-0.710683,-0.691176,-0.098680,484068292.959492
-0.020602,-0.020993,-0.102576,-0.086823,-0.710972,-0.690981,-0.097604,484068292.959867
-0.005016,-0.019829,-0.096782,-0.086573,-0.711277,-0.690964,-0.095704,484068292.975379
0.009146,-0.019608,-0.103413,-0.085917,-0.711553,-0.691088,-0.093317,484068292.991666
0.014379,-0.010937,-0.102860,-0.085043,-0.711823,-0.691267,-0.090697,484068292.992811
0.020929,-0.001815,-0.101634,-0.084110,-0.712119,-0.691438,-0.087896,484068293.006973
0.014810,0.009125,-0.095721,-0.083170,-0.712479,-0.691532,-0.085088,484068293.023225
0.018117,0.011842,-0.095229,-0.082312,-0.712903,-0.691529,-0.082345,484068293.023655
0.009410,0.014619,-0.097699,-0.081658,-0.713401,-0.691404,-0.079700,484068293.038208
0.005091,0.007520,-0.099775,-0.081135,-0.713979,-0.691153,-0.077199,484068293.054351
0.010437,0.013098,-0.099070,-0.080636,-0.714643,-0.690807,-0.074627,484068293.054774
0.003750,0.022495,-0.115783,-0.080041,-0.715453,-0.690330,-0.071869,484068293.069876
0.001128,0.029506,-0.130058,-0.079273,-0.716357,-0.689780,-0.068941,484068293.085586
-0.003651,0.033073,-0.151096,-0.078398,-0.717377,-0.689110,-0.065963,484068293.086037
-0.004112,0.039957,-0.162353,-0.077441,-0.718500,-0.688327,-0.062980,484068293.100997
-0.007521,0.039678,-0.170291,-0.076524,-0.719676,-0.687454,-0.060142,484068293.117043
-0.003507,0.035547,-0.158844,-0.075352,-0.716143,-0.691475,-0.057648,484068293.117501
-0.011497,0.027918,-0.158220,-0.074523,-0.717375,-0.690505,-0.054975,484068293.132697
-0.019489,0.017761,-0.163921,-0.073763,-0.718641,-0.689480,-0.052257,484068293.148627
-0.034460,0.014256,-0.162507,-0.073008,-0.719977,-0.688371,-0.049482,484068293.149030
-0.039813,0.015265,-0.146098,-0.073666,-0.713885,-0.694926,-0.044950,484068293.164134
-0.036074,0.012240,-0.143996,-0.072922,-0.715393,-0.693623,-0.042220,484068293.179846
-0.089516,0.006481,-0.163493,-0.072179,-0.716990,-0.692196,-0.039745,484068293.180213
-0.091335,-0.000406,-0.172933,-0.071394,-0.718672,-0.690643,-0.037767,484068293.196059
-0.076613,0.002940,-0.170484,-0.070624,-0.720436,-0.688963,-0.036255,484068293.211357
-0.049917,0.012957,-0.167459,-0.069922,-0.722206,-0.687242,-0.035038,484068293.211711
-0.034907,0.024750,-0.169262,-0.069423,-0.723943,-0.685514,-0.034013,484068293.227079
-0.030798,0.039791,-0.180259,-0.069184,-0.725575,-0.683843,-0.033360,484068293.243244
-0.025527,0.052331,-0.186321,-0.069185,-0.727131,-0.682199,-0.033148,484068293.243826
-0.025183,0.058757,-0.188229,-0.069471,-0.728587,-0.680603,-0.033370,484068293.258577
-0.023670,0.064403,-0.193665,-0.069920,-0.729942,-0.679074,-0.033966,484068293.274182
-0.023918,0.068611,-0.195573,-0.070484,-0.731199,-0.677607,-0.035043,484068293.274557
-0.012167,0.069019,-0.174337,-0.071101,-0.723799,-0.685372,-0.036383,484068293.290464
0.013662,0.047516,-0.220868,-0.072079,-0.724711,-0.684183,-0.038631,484068293.305634
0.027064,0.028833,-0.240223,-0.073321,-0.725546,-0.682987,-0.041652,484068293.306002
0.045515,0.006777,-0.249854,-0.073601,-0.722320,-0.686047,-0.046637,484068293.321455
0.065376,-0.002831,-0.270870,-0.075628,-0.722952,-0.684814,-0.051477,484068293.337326
0.076914,0.000210,-0.293318,-0.078107,-0.723518,-0.683468,-0.057390,484068293.337746
0.094461,0.009530,-0.311226,-0.080916,-0.724156,-0.681850,-0.064277,484068293.352877
0.091465,0.004582,-0.301905,-0.083931,-0.724872,-0.679965,-0.071866,484068293.369155
0.060628,0.013495,-0.276276,-0.086741,-0.725574,-0.677956,-0.079962,484068293.369817
0.048720,-0.000869,-0.252209,-0.088916,-0.726250,-0.675936,-0.088125,484068293.384525
0.043370,-0.008317,-0.209649,-0.089804,-0.727226,-0.673793,-0.095288,484068293.400175
0.026561,-0.018070,-0.186671,-0.089418,-0.728417,-0.671677,-0.101309,484068293.401567
-0.028000,-0.103484,-0.208960,-0.087864,-0.729672,-0.669689,-0.106656,484068293.415949
-0.054116,-0.166785,-0.249632,-0.085779,-0.730654,-0.668041,-0.111837,484068293.431713
-0.060597,-0.234359,-0.293441,-0.083522,-0.731151,-0.666871,-0.117159,484068293.432393
-0.019810,-0.329319,-0.338305,-0.081241,-0.731080,-0.666260,-0.122556,484068293.447546
0.022385,-0.362114,-0.325631,-0.079203,-0.730371,-0.666353,-0.127509,484068293.463008
0.036612,-0.284504,-0.240500,-0.077129,-0.729019,-0.667349,-0.131257,484068293.463362
-0.014880,-0.115996,-0.099873,-0.073020,-0.726717,-0.669927,-0.133225,484068293.478737
0.024138,0.001532,-0.068422,-0.066109,-0.723370,-0.674208,-0.133452,484068293.494413
0.061888,0.098568,-0.211608,-0.058278,-0.719794,-0.678699,-0.133674,484068293.494630
0.077225,0.162444,-0.288702,-0.052429,-0.716374,-0.682114,-0.137039,484068293.511492
0.113301,0.151908,-0.203161,-0.050043,-0.712434,-0.684938,-0.144200,484068293.526244
0.106034,0.090817,-0.002574,-0.051558,-0.707065,-0.688244,-0.154019,484068293.526968
-0.016324,0.139598,0.453375,-0.055273,-0.699383,-0.693359,-0.164504,484068293.541851
0.006700,0.049665,0.565960,-0.060074,-0.690038,-0.699819,-0.174618,484068293.557497
0.058460,-0.169061,0.694728,-0.063092,-0.680498,-0.707082,-0.181593,484068293.557898
0.138643,-0.329041,0.663464,-0.061287,-0.672113,-0.714919,-0.182756,484068293.573380
0.248715,-0.343631,0.472396,-0.054511,-0.665512,-0.722786,-0.178052,484068293.589064
0.254764,-0.267003,0.345622,-0.043987,-0.660588,-0.730125,-0.169133,484068293.589484
0.239394,-0.192920,0.297712,-0.030800,-0.656644,-0.736918,-0.157550,484068293.604618
0.228179,-0.109160,0.300738,-0.015498,-0.653065,-0.743299,-0.144127,484068293.621121
0.183644,-0.004118,0.262905,0.001298,-0.649613,-0.749103,-0.129791,484068293.621496
0.152386,0.047469,0.213611,0.018895,-0.646127,-0.754214,-0.115426,484068293.636208
0.130206,0.060312,0.141456,0.035864,-0.642242,-0.758914,-0.101429,484068293.652595
0.041522,0.114108,0.065295,0.051759,-0.638392,-0.762948,-0.087670,484068293.653034
-0.053243,0.133507,0.050518,0.067258,-0.634572,-0.766370,-0.073969,484068293.667625
-0.115289,0.125295,0.014464,0.082467,-0.630401,-0.769511,-0.060389,484068293.683563
-0.156381,0.102382,-0.086657,0.097103,-0.625929,-0.772387,-0.046928,484068293.683944
-0.211381,0.098409,-0.218515,0.110221,-0.621421,-0.774918,-0.034499,484068293.698959
-0.214870,0.108557,-0.295287,0.120932,-0.617274,-0.777025,-0.024080,484068293.714824
-0.189147,0.124851,-0.291290,0.129940,-0.613983,-0.778398,-0.015392,484068293.715239
-0.109524,0.105117,-0.207120,0.138470,-0.611217,-0.779221,-0.007443,484068293.730639
-0.096218,0.064430,-0.138520,0.147119,-0.608210,-0.780023,0.000184,484068293.746539
-0.083084,0.067720,-0.075329,0.155743,-0.604040,-0.781554,0.007317,484068293.746956
-0.082315,0.058382,-0.070894,0.162917,-0.598028,-0.784632,0.013158,484068293.762020
-0.105687,0.054945,-0.203406,0.167820,-0.590141,-0.789477,0.017187,484068293.777758
-0.123711,0.036694,-0.213910,0.170195,-0.581245,-0.795491,0.019559,484068293.778116
-0.151875,0.024848,-0.106466,0.170598,-0.572180,-0.801915,0.020948,484068293.794266
-0.162693,0.013912,0.024132,0.169536,-0.562941,-0.808624,0.021950,484068293.809065
-0.164531,0.009552,0.115815,0.167807,-0.553745,-0.815275,0.023094,484068293.809439
-0.166317,0.014306,0.150317,0.166529,-0.545268,-0.821173,0.025007,484068293.825217
-0.162159,0.026234,0.162777,0.166520,-0.538140,-0.825762,0.028183,484068293.840709
-0.160576,0.026114,0.146501,0.167686,-0.532494,-0.829020,0.032530,484068293.841079
-0.140423,0.037567,0.097060,0.169219,-0.528167,-0.831262,0.037535,484068293.856414
-0.116824,0.059327,0.071232,0.170707,-0.524960,-0.832730,0.042860,484068293.872246
-0.083631,0.080091,0.055377,0.172143,-0.522706,-0.833549,0.048381,484068293.872608
-0.067850,0.084210,0.025212,0.173389,-0.521321,-0.833829,0.053759,484068293.888770
-0.056010,0.131947,-0.021681,0.174111,-0.520869,-0.833624,0.058744,484068293.903625
-0.054305,0.146887,-0.028188,0.174339,-0.521528,-0.832829,0.063328,484068293.904056
-0.043319,0.147971,-0.018061,0.174558,-0.523356,-0.831286,0.067766,484068293.919426
-0.013147,0.150609,-0.025057,0.174809,-0.526278,-0.829019,0.072113,484068293.934362
0.023800,0.159160,-0.002650,0.175025,-0.530182,-0.826103,0.076329,484068293.934580
0.075325,0.160589,0.040106,0.174975,-0.534498,-0.822964,0.080158,484068293.951305
0.086083,0.182102,0.049194,0.174797,-0.538696,-0.819948,0.083296,484068293.965927
0.110402,0.219779,0.036601,0.175501,-0.542478,-0.817026,0.085938,484068293.966164
0.204346,0.234241,0.002159,0.178001,-0.545936,-0.813846,0.089017,484068293.981523
0.190977,0.227614,-0.133979,0.181913,-0.549762,-0.809997,0.092594,484068293.997351
0.239620,0.034234,-0.267553,0.185644,-0.555032,-0.805070,0.096638,484068293.997676
-0.010523,-0.123278,-0.154798,0.188573,-0.561305,-0.799613,0.099986,484068294.014227
-0.022771,-0.152744,-0.123851,0.191466,-0.566943,-0.794534,0.103111,484068294.029256
0.058494,-0.120424,-0.162629,0.195003,-0.571388,-0.789994,0.106769,484068294.029899
0.193553,-0.034506,-0.228639,0.200069,-0.574614,-0.785682,0.111782,484068294.044362
0.341116,0.041809,-0.350504,0.207755,-0.576435,-0.781288,0.118954,484068294.060939
0.476933,0.133025,-0.503012,0.218077,-0.576909,-0.776598,0.128509,484068294.062494
0.585896,0.208541,-0.680473,0.229146,-0.576322,-0.772042,0.138911,484068294.076956
0.654134,0.217683,-0.709792,0.238367,-0.575098,-0.768376,0.148462,484068294.093176
0.578298,0.099512,-0.517424,0.244813,-0.573449,-0.766055,0.156149,484068294.093663
0.423948,-0.102592,-0.232239,0.248804,-0.571243,-0.765128,0.162347,484068294.108306
0.227553,-0.316627,0.053181,0.250982,-0.567908,-0.765690,0.167950,484068294.123700
0.018489,-0.526800,0.286710,0.252520,-0.562440,-0.768096,0.172983,484068294.124081
-0.349192,-1.168738,0.696241,0.253733,-0.553487,-0.773281,0.176942,484068294.139731
-0.417303,-1.109221,0.601516,0.251800,-0.540290,-0.782985,0.177814,484068294.155483
-0.369673,-0.575689,0.235678,0.244126,-0.525489,-0.795897,0.175534,484068294.156041
-0.478301,-0.161525,-0.012036,0.230359,-0.513530,-0.809049,0.169296,484068294.170946
-0.507592,-0.009730,-0.135807,0.212436,-0.508624,-0.819170,0.158533,484068294.186825
-0.543295,0.122087,0.275348,0.197631,-0.512049,-0.823037,0.146144,484068294.187191
-0.575008,0.246967,0.821681,0.193284,-0.519550,-0.820905,0.137202,484068294.201826
-0.475467,0.146895,0.816716,0.198487,-0.527683,-0.815041,0.133652,484068294.218746
-0.366857,-0.023074,0.555448,0.208829,-0.535834,-0.806880,0.134970,484068294.219226
-0.367665,-0.173254,0.406658,0.221086,-0.543562,-0.797591,0.139678,484068294.234106
-0.479258,-0.328958,0.299412,0.232547,-0.550529,-0.788448,0.145562,484068294.250152
-0.645364,-0.494941,-0.337502,0.238854,-0.557601,-0.780851,0.149339,484068294.250605
-0.742097,-0.354360,-0.536733,0.236637,-0.565831,-0.775764,0.148418,484068294.265531
-0.740713,-0.143659,-0.409508,0.226299,-0.575355,-0.773110,0.141623,484068294.281242
-0.520023,0.002795,-0.140101,0.211216,-0.585059,-0.771846,0.131707,484068294.281658
-0.393188,0.091657,-0.034825,0.195309,-0.594004,-0.770805,0.121958,484068294.296586
-0.354823,0.146358,-0.048077,0.180198,-0.602004,-0.769650,0.112953,484068294.312751
-0.300427,0.161119,-0.159865,0.164254,-0.609047,-0.769020,0.103389,484068294.313430
-0.263914,0.170702,-0.251042,0.145195,-0.614375,-0.770125,0.091477,484068294.328880
-0.233738,0.174949,-0.248896,0.124841,-0.618126,-0.772204,0.077691,484068294.343567
-0.168737,0.161912,-0.238783,0.105550,-0.620999,-0.774031,0.063997,484068294.343833
-0.095093,0.145605,-0.212708,0.088442,-0.623275,-0.775211,0.052481,484068294.359354
-0.023422,0.141826,-0.085359,0.073896,-0.625130,-0.775774,0.043886,484068294.375970
-0.001846,0.167548,0.000485,0.062114,-0.626345,-0.776138,0.038002,484068294.376473
-0.000712,0.191198,0.073383,0.053914,-0.626906,-0.776462,0.034469,484068294.391328
0.049455,0.188262,0.134048,0.049509,-0.626991,-0.776770,0.032546,484068294.410662
0.113895,0.146109,0.172746,0.048143,-0.626768,-0.777048,0.032264,484068294.410902
0.152305,0.088811,0.173414,0.048535,-0.626234,-0.777405,0.033417,484068294.422058
0.159747,0.021308,-0.135998,0.047360,-0.626590,-0.777213,0.032897,484068294.437812
0.221776,-0.025804,-0.276145,0.039353,-0.629824,-0.775324,0.025420,484068294.438960
0.331204,-0.026200,-0.051999,0.027189,-0.634227,-0.772521,0.015072,484068294.453658
0.339849,0.007484,0.088981,0.016070,-0.638572,-0.769363,0.006952,484068294.469180
0.206444,0.053412,0.038223,0.008440,-0.642615,-0.766140,0.002126,484068294.469464
0.189851,0.098023,-0.164255,0.003714,-0.646398,-0.762992,-0.000348,484068294.485753
0.215255,0.125229,-0.203024,0.000314,-0.650196,-0.759764,-0.001641,484068294.501546
0.224566,0.145572,-0.217419,-0.002951,-0.654222,-0.756291,-0.003002,484068294.501969
0.221330,0.174180,-0.193054,-0.006864,-0.658356,-0.752657,-0.005262,484068294.517118
0.186391,0.186745,-0.179570,-0.011570,-0.662336,-0.749067,-0.008774,484068294.532812
0.132304,0.191358,-0.203668,-0.017495,-0.665861,-0.745746,-0.013674,484068294.533173
0.056312,0.185366,-0.245150,-0.025137,-0.668792,-0.742744,-0.020394,484068294.548834
-0.028431,0.188088,-0.269038,-0.034446,-0.671007,-0.740076,-0.029183,484068294.564846
-0.098807,0.225066,-0.273912,-0.045194,-0.672223,-0.737872,-0.040226,484068294.565249
-0.107238,0.240029,-0.294030,-0.056714,-0.672629,-0.735910,-0.052816,484068294.580209
-0.085469,0.222855,-0.411687,-0.068357,-0.672958,-0.733548,-0.066046,484068294.596120
-0.180068,0.201590,-0.609693,-0.080489,-0.673671,-0.730221,-0.080416,484068294.596511
-0.152815,0.206646,-0.702760,-0.093128,-0.675083,-0.725525,-0.095938,484068294.611474
0.025606,0.194049,-0.488805,-0.104382,-0.677322,-0.719815,-0.110479,484068294.627095
0.140898,0.035938,-0.386441,-0.111486,-0.680252,-0.714285,-0.120934,484068294.627467
0.149963,-0.117096,-0.422155,-0.114534,-0.683392,-0.709684,-0.127303,484068294.642849
0.125459,-0.239047,-0.475718,-0.115378,-0.686544,-0.705618,-0.132096,484068294.660772
0.145542,-0.361575,-0.432205,-0.115651,-0.689533,-0.701744,-0.136838,484068294.661033
0.193826,-0.370917,-0.242103,-0.114566,-0.692190,-0.698598,-0.140387,484068294.674090
0.173191,-0.257722,-0.177529,-0.111072,-0.694250,-0.696741,-0.142238,484068294.690427
0.134361,-0.044925,-0.219462,-0.105998,-0.695559,-0.695717,-0.144704,484068294.690859
0.102156,0.165854,-0.247434,-0.099166,-0.696468,-0.694918,-0.148953,484068294.705966
0.108992,0.312723,-0.217119,-0.090225,-0.696809,-0.694523,-0.154770,484068294.721657
0.118811,0.415322,-0.186928,-0.079389,-0.696055,-0.694951,-0.162014,484068294.722071
0.200311,0.176449,-0.237820,-0.067497,-0.694234,-0.696057,-0.170257,484068294.737895
0.320726,-0.269817,-0.369895,-0.057223,-0.691876,-0.697358,-0.178113,484068294.753183
0.368958,-0.489834,-0.070363,-0.051404,-0.688310,-0.699826,-0.183933,484068294.753598
0.368849,-0.480166,0.220767,-0.049743,-0.682110,-0.705838,-0.184510,484068294.768900
0.181525,-0.167446,0.337914,-0.048799,-0.672881,-0.716166,-0.178764,484068294.784641
0.026845,-0.127794,0.164786,-0.046032,-0.661622,-0.729064,-0.169125,484068294.785007
-0.109444,-0.343143,-0.186393,-0.043173,-0.650436,-0.741244,-0.160087,484068294.800369
-0.126126,-0.673094,-0.263105,-0.043364,-0.640621,-0.750789,-0.155049,484068294.816618
-0.037630,-0.924602,0.077059,-0.045788,-0.631721,-0.758812,-0.151775,484068294.816977
0.116240,-0.941486,0.442953,-0.047493,-0.622578,-0.767191,-0.146832,484068294.832008
0.219178,-0.960337,0.795470,-0.045856,-0.611814,-0.777439,-0.138452,484068294.847555
0.235148,-0.639775,0.950185,-0.039997,-0.599027,-0.789460,-0.127746,484068294.847924
0.227323,-0.367998,0.711532,-0.030366,-0.584674,-0.802235,-0.116843,484068294.863166
0.219795,-0.132348,0.506883,-0.018248,-0.570782,-0.813897,-0.106989,484068294.879316
0.259530,0.006526,0.413053,-0.003942,-0.559195,-0.823238,-0.097794,484068294.879924
0.288217,0.042107,0.440145,0.011771,-0.550494,-0.830066,-0.088363,484068294.894487
0.292581,0.082709,0.503100,0.028999,-0.544131,-0.834918,-0.077411,484068294.910483
0.259306,0.154514,0.528687,0.048656,-0.539470,-0.838130,-0.064362,484068294.910726
0.211731,0.200413,0.493476,0.071055,-0.535945,-0.839798,-0.049535,484068294.926267
0.163696,0.232915,0.410944,0.095119,-0.533253,-0.839915,-0.033700,484068294.941830
0.084182,0.259105,0.289311,0.118511,-0.531449,-0.838551,-0.018682,484068294.942238
-0.018672,0.262955,0.043296,0.139072,-0.531490,-0.835549,-0.005884,484068294.958578
-0.209397,0.339067,-0.342228,0.155222,-0.534080,-0.831055,0.003428,484068294.974390
-0.214720,0.399781,-0.312483,0.164430,-0.538574,-0.826338,0.008082,484068294.975175
-0.210744,0.443358,-0.143904,0.166680,-0.542831,-0.823094,0.008277,484068294.988438
-0.155267,0.388254,0.013743,0.166043,-0.545455,-0.821504,0.006396,484068295.004218
-0.205102,0.376845,0.057549,0.167295,-0.546233,-0.820735,0.005911,484068295.004500
-0.292217,0.361787,0.000875,0.173038,-0.545227,-0.820190,0.008599,484068295.019950
-0.356235,0.311658,-0.121485,0.183105,-0.542450,-0.819764,0.014446,484068295.035591
-0.350645,0.218716,-0.285179,0.194701,-0.538239,-0.819687,0.022430,484068295.035864
-0.337058,0.122137,-0.397918,0.204347,-0.533176,-0.820364,0.031128,484068295.051549
-0.381590,0.090522,-0.377244,0.210220,-0.527363,-0.822266,0.039680,484068295.067868
-0.367474,0.079236,-0.174706,0.212191,-0.520383,-0.825736,0.048335,484068295.068290
-0.467991,0.022660,0.004729,0.211391,-0.512121,-0.830531,0.057128,484068295.083648
-0.481474,-0.041590,0.022674,0.209336,-0.503423,-0.835751,0.065296,484068295.099648
-0.458894,-0.059469,0.043367,0.205920,-0.495117,-0.841038,0.071497,484068295.100793
-0.215635,-0.048016,0.070680,0.201369,-0.488297,-0.845738,0.075785,484068295.114863
-0.120844,0.007263,0.131513,0.197647,-0.484359,-0.848443,0.080477,484068295.130728
-0.092517,0.068862,0.202533,0.196028,-0.483517,-0.848747,0.086095,484068295.131095
-0.015996,0.105628,0.249224,0.196991,-0.485418,-0.846757,0.092557,484068295.146284
0.054743,0.109066,0.218264,0.200317,-0.490630,-0.842192,0.099337,484068295.161779
0.149629,0.102913,0.077091,0.202926,-0.501405,-0.834647,0.103818,484068295.162075
0.196421,0.202578,0.276443,0.207578,-0.514190,-0.825006,0.109016,484068295.178116
0.092126,0.375417,0.152819,0.215121,-0.524851,-0.815605,0.114206,484068295.193558
0.147700,0.157148,0.073054,0.227477,-0.532569,-0.806474,0.119266,484068295.193927
0.444071,-0.262246,-0.137583,0.244108,-0.538632,-0.796654,0.125017,484068295.209156
0.587941,-0.505395,-0.282182,0.260881,-0.542536,-0.787697,0.130880,484068295.224992
0.649654,-0.746191,-0.461434,0.272819,-0.543206,-0.782423,0.135315,484068295.225352
0.538650,-0.758010,-0.624844,0.276550,-0.540937,-0.782509,0.136334,484068295.240905
0.450399,-0.479361,-0.554218,0.273922,-0.537627,-0.786094,0.134088,484068295.256577
0.502358,-0.195291,-0.568524,0.269467,-0.535208,-0.789792,0.131028,484068295.256962
0.469045,0.033914,-0.533973,0.266712,-0.535003,-0.791247,0.128702,484068295.272410
0.393682,0.137631,-0.409525,0.267882,-0.536415,-0.790004,0.128032,484068295.288016
0.295908,0.112926,-0.239004,0.272601,-0.538469,-0.786749,0.129479,484068295.288378
0.274098,-0.034343,-0.036039,0.279243,-0.540125,-0.782633,0.133319,484068295.303660
0.148155,-0.248401,0.085304,0.287176,-0.540780,-0.778294,0.139092,484068295.320050
0.087457,-0.745403,0.382454,0.295634,-0.540348,-0.773978,0.146908,484068295.320486
0.021865,-0.725224,0.452978,0.304328,-0.538400,-0.769655,0.158562,484068295.335234
-0.188797,-0.521571,0.435480,0.313431,-0.534700,-0.765257,0.173895,484068295.350910
-0.401318,-0.168712,0.384073,0.323476,-0.529369,-0.760739,0.190811,484068295.351245
-0.708060,0.121471,0.230497,0.333130,-0.522886,-0.757036,0.206181,484068295.366896
-1.072272,0.208488,-0.155419,0.335243,-0.519190,-0.756730,0.213104,484068295.382457
-1.055784,0.262810,-0.075770,0.332952,-0.519417,-0.757867,0.212100,484068295.382814
-0.979984,0.246285,0.037845,0.333632,-0.521496,-0.757318,0.207849,484068295.398417
-0.707171,0.063164,0.067890,0.337205,-0.524747,-0.754492,0.204144,484068295.414383
-0.520104,-0.144142,0.005805,0.340472,-0.529542,-0.749966,0.203013,484068295.414796
-0.536100,-0.257438,-0.139714,0.340582,-0.535950,-0.745152,0.203739,484068295.429531
-0.653127,-0.219771,-0.264285,0.336014,-0.543463,-0.741674,0.204112,484068295.445444
-0.544751,-0.116426,-0.102593,0.328128,-0.551371,-0.739436,0.203851,484068295.445872
-0.477978,-0.011587,-0.050063,0.319263,-0.559262,-0.737440,0.203666,484068295.461100
-0.443350,0.115327,-0.018522,0.311679,-0.566965,-0.734788,0.203698,484068295.476753
-0.352575,0.184880,-0.004696,0.306589,-0.574281,-0.731259,0.203627,484068295.477124
-0.245757,0.242161,0.002947,0.302601,-0.580935,-0.727808,0.203084,484068295.493034
-0.156326,0.305256,-0.032023,0.297977,-0.586938,-0.725201,0.201983,484068295.508347
-0.097556,0.314625,-0.121608,0.291134,-0.592439,-0.724091,0.199872,484068295.508739
-0.041956,0.243466,-0.234891,0.278734,-0.597117,-0.726374,0.195295,484068295.523950
-0.039487,0.242432,-0.215040,0.263088,-0.600919,-0.730670,0.189215,484068295.540132
-0.022572,0.222607,-0.205576,0.247258,-0.603957,-0.735277,0.182941,484068295.540613
0.024332,0.210322,-0.196411,0.232720,-0.606264,-0.739467,0.177408,484068295.555381
0.100262,0.203894,-0.239212,0.220092,-0.608271,-0.742758,0.172850,484068295.571020
0.143020,0.219735,-0.260887,0.209663,-0.610749,-0.744661,0.168839,484068295.571385
0.211381,0.190039,-0.321190,0.200879,-0.615185,-0.744470,0.164196,484068295.587736
0.296906,0.055784,-0.289353,0.191709,-0.623190,-0.741684,0.157437,484068295.602766
0.388559,-0.072447,0.098001,0.180472,-0.634272,-0.736795,0.149207,484068295.603180
0.315071,-0.069231,1.069246,0.172101,-0.643309,-0.731681,0.145524,484068295.618448
0.240314,0.037437,0.700493,0.167232,-0.649031,-0.727479,0.146857,484068295.634216
0.182644,0.121403,0.373912,0.163844,-0.653026,-0.723902,0.150593,484068295.634580
0.113724,0.090913,0.169016,0.160954,-0.656057,-0.720729,0.155667,484068295.649889
0.046915,0.017751,-0.015327,0.157765,-0.658769,-0.717742,0.161183,484068295.665483
-0.018173,-0.070321,-0.104385,0.154560,-0.661673,-0.714331,0.167426,484068295.665906
-0.069850,-0.079348,-0.299894,0.151100,-0.665178,-0.710270,0.173849,484068295.681521
-0.063197,-0.050081,-0.342429,0.146626,-0.669090,-0.706077,0.179650,484068295.696990
-0.085848,0.016980,-0.372634,0.141025,-0.673078,-0.702171,0.184479,484068295.697394
-0.130911,0.074581,-0.370340,0.135071,-0.676753,-0.698842,0.188098,484068295.712891
-0.199069,0.109382,-0.423076,0.128930,-0.679754,-0.696548,0.190084,484068295.728565
-0.245525,0.091241,-0.497691,0.122291,-0.682429,-0.695172,0.189923,484068295.728940
-0.212730,0.071097,-0.498984,0.115198,-0.685500,-0.694072,0.187307,484068295.744085
-0.090941,0.059160,-0.417717,0.107680,-0.689106,-0.692851,0.183020,484068295.760605
-0.048047,0.042546,-0.371236,0.099982,-0.692674,-0.691710,0.178168,484068295.760990
-0.022842,0.062288,-0.361405,0.093602,-0.695711,-0.690601,0.174054,484068295.776169
0.011731,0.119507,-0.375109,0.089692,-0.697940,-0.689515,0.171477,484068295.791461
0.005725,0.102646,-0.426048,0.087854,-0.699229,-0.688797,0.170059,484068295.792031
-0.160698,-0.107466,-0.386865,0.087208,-0.699648,-0.688766,0.168787,484068295.807257
-0.261324,-0.049693,-0.348063,0.087429,-0.699097,-0.689777,0.166813,484068295.824019
-0.284960,0.084324,-0.356255,0.089123,-0.697282,-0.692032,0.164155,484068295.824453
-0.264953,0.225102,-0.401980,0.093139,-0.693951,-0.695616,0.160857,484068295.838880
-0.183162,0.349313,-0.387343,0.100016,-0.689228,-0.700296,0.156674,484068295.854307
-0.104251,0.480579,-0.326289,0.110062,-0.683409,-0.705614,0.151481,484068295.854722
-0.075693,0.608368,-0.227977,0.123462,-0.676654,-0.711226,0.145097,484068295.870050
-0.065550,0.717600,-0.130383,0.140283,-0.668867,-0.716993,0.137329,484068295.885795
-0.062801,0.759024,-0.057829,0.161018,-0.659894,-0.722562,0.128517,484068295.886174
0.091956,0.388145,0.089855,0.185714,-0.649952,-0.726912,0.121127,484068295.901787
0.471587,-0.692387,0.119700,0.212176,-0.640665,-0.728082,0.120111,484068295.917134
0.789715,-1.715693,-0.230047,0.232162,-0.634418,-0.726379,0.126445,484068295.917736
0.337637,-0.966319,0.030768,0.241421,-0.629138,-0.725727,0.138644,484068295.933260
-0.021839,-0.687250,-0.191620,0.241796,-0.622736,-0.729082,0.148908,484068295.948879
-0.136806,-0.984002,0.151455,0.230472,-0.617200,-0.737286,0.149517,484068295.949263
-0.221693,-1.159438,0.693822,0.213214,-0.609957,-0.748842,0.147403,484068295.964542
-0.449585,-0.836277,0.869036,0.199018,-0.597805,-0.762187,0.148633,484068295.980242
-0.399014,-0.553375,0.760415,0.192733,-0.581097,-0.775518,0.154116,484068295.980605
-0.003970,-0.324357,0.574064,0.193793,-0.562945,-0.786465,0.164349,484068295.995968
0.076661,-0.105707,0.497547,0.199970,-0.545131,-0.794523,0.177700,484068296.011858
0.092559,0.061898,0.449349,0.208514,-0.528137,-0.800735,0.190834,484068296.012232
0.104298,0.127154,0.439962,0.217654,-0.512489,-0.805756,0.201840,484068296.027477
0.203046,0.168532,0.442842,0.226744,-0.498587,-0.809657,0.210841,484068296.043493
0.187472,0.237810,0.433863,0.236766,-0.486526,-0.812008,0.218811,484068296.043909
0.176263,0.289424,0.436145,0.249023,-0.476112,-0.812376,0.226608,484068296.058864
0.127754,0.351510,0.306451,0.263978,-0.467330,-0.810392,0.234910,484068296.074388
-0.044208,0.379552,0.144505,0.280377,-0.460673,-0.806354,0.242823,484068296.074909
-0.208870,0.341816,-0.016173,0.295803,-0.456273,-0.801491,0.248853,484068296.089959
-0.274329,0.318901,-0.095339,0.308470,-0.453858,-0.796809,0.252891,484068296.105764
-0.330271,0.370854,-0.148759,0.317124,-0.453053,-0.793201,0.254967,484068296.106113
-0.387369,0.439388,-0.166047,0.321074,-0.452839,-0.791692,0.255091,484068296.121208
-0.464018,0.459260,-0.111713,0.321753,-0.451447,-0.792554,0.254027,484068296.137188
-0.502564,0.435439,-0.064408,0.321850,-0.447974,-0.794752,0.253181,484068296.137461
-0.507248,0.374255,-0.074300,0.322365,-0.442868,-0.797490,0.252901,484068296.152964
-0.359687,0.191661,0.007334,0.323151,-0.436801,-0.800243,0.253749,484068296.168570
-0.328788,0.145826,0.062277,0.323813,-0.430273,-0.802861,0.255782,484068296.168845
-0.340818,0.071186,0.114593,0.324049,-0.424035,-0.805173,0.258620,484068296.184263
-0.371933,0.002321,0.197166,0.323633,-0.418628,-0.807077,0.261991,484068296.199796
-0.387966,-0.028061,0.226787,0.322755,-0.414214,-0.808408,0.265957,484068296.200022
-0.359551,-0.055901,0.163089,0.321295,-0.410920,-0.809323,0.270020,484068296.215602
-0.297843,-0.055419,0.097538,0.318901,-0.408992,-0.810036,0.273624,484068296.231431
-0.214898,-0.033064,0.035934,0.315884,-0.408799,-0.810258,0.276735,484068296.231661
-0.127751,0.001003,0.009350,0.312914,-0.410457,-0.809639,0.279454,484068296.247773
-0.039113,0.017608,0.013599,0.310759,-0.413952,-0.807788,0.282049,484068296.263793
0.037856,0.056775,0.048191,0.311056,-0.418943,-0.804138,0.284770,484068296.264170
0.076675,0.177281,0.105231,0.314565,-0.424685,-0.798866,0.287236,484068296.279131
0.094475,0.170449,-0.018762,0.319113,-0.431381,-0.793510,0.287087,484068296.294783
0.208637,0.162042,0.071469,0.322136,-0.438577,-0.790209,0.281867,484068296.295174
0.282538,0.148026,0.003935,0.324509,-0.443445,-0.789539,0.273275,484068296.310542
0.421392,0.032207,-0.192042,0.326759,-0.445115,-0.790976,0.263549,484068296.326526
0.552066,-0.107677,-0.344763,0.329621,-0.444904,-0.792577,0.255405,484068296.326938
0.654908,-0.252450,-0.377013,0.334209,-0.444143,-0.792531,0.250869,484068296.342014
0.643792,-0.378869,-0.324947,0.341463,-0.443158,-0.790111,0.250475,484068296.358199
0.685308,-0.621726,-0.191726,0.351862,-0.440934,-0.785631,0.254075,484068296.358549
0.662422,-1.057103,-0.131357,0.363871,-0.436106,-0.781065,0.259513,484068296.373766
0.438541,-1.436782,-0.286166,0.373143,-0.428330,-0.780396,0.261306,484068296.389255
0.314348,-1.279389,-0.407026,0.375094,-0.418749,-0.786254,0.256434,484068296.389690
0.241931,-0.230500,-0.665398,0.367121,-0.410815,-0.797559,0.245666,484068296.405136
0.093484,-0.297044,-0.464758,0.348192,-0.409360,-0.810967,0.231340,484068296.420627
-0.213709,-0.497663,1.812339,0.325339,-0.415058,-0.821154,0.218147,484068296.421048
-0.580224,-0.674105,2.205090,0.322016,-0.417657,-0.821248,0.217763,484068296.436403
-0.597341,-0.646074,1.136491,0.332921,-0.422006,-0.812673,0.225027,484068296.452288
-0.504792,-0.407380,0.492009,0.345134,-0.427781,-0.801794,0.234547,484068296.452663
-0.536563,-0.189198,0.099354,0.353321,-0.433544,-0.792333,0.243748,484068296.468081
-0.499156,-0.069002,-0.098612,0.359125,-0.440118,-0.783162,0.252946,484068296.483812
-0.553142,0.096438,-0.215851,0.365547,-0.448476,-0.771896,0.263481,484068296.484230
-0.601288,0.238424,-0.348334,0.372685,-0.459074,-0.757988,0.275339,484068296.499390
-0.652322,0.309331,-0.495444,0.376880,-0.471276,-0.743726,0.287632,484068296.515051
-1.022688,0.292350,-0.584221,0.375772,-0.484521,-0.731061,0.299308,484068296.515432
-1.589256,0.302059,-0.552491,0.370254,-0.498063,-0.721596,0.306830,484068296.531306
-1.816189,0.339755,-0.297219,0.363936,-0.510383,-0.716683,0.305654,484068296.546657
-0.893689,0.186877,-0.023337,0.357338,-0.520776,-0.716216,0.296878,484068296.547032
-0.390378,0.115500,0.018298,0.348555,-0.530947,-0.717287,0.286540,484068296.562412
-0.227616,0.099328,0.020738,0.338007,-0.541605,-0.718312,0.276485,484068296.578245
-0.182338,0.074565,0.025337,0.326527,-0.552342,-0.719223,0.266490,484068296.578921
-0.145830,0.026757,-0.004279,0.314435,-0.562361,-0.720644,0.256034,484068296.593844
-0.070872,-0.040673,-0.061720,0.301089,-0.571159,-0.723406,0.244555,484068296.609787
-0.006233,-0.053078,-0.143821,0.285072,-0.577800,-0.729068,0.230956,484068296.610180
0.086107,-0.005738,-0.101000,0.268678,-0.581620,-0.736641,0.216541,484068296.625590
0.238357,0.060072,-0.166847,0.253593,-0.582924,-0.744807,0.202861,484068296.640988
0.281831,0.107838,-0.153124,0.240887,-0.582303,-0.752604,0.191008,484068296.641357
0.321685,0.149508,-0.088230,0.231487,-0.580085,-0.759438,0.182123,484068296.657276
0.334016,0.216075,0.074196,0.226451,-0.576705,-0.764614,0.177470,484068296.672538
0.344078,0.257151,0.145835,0.226305,-0.572241,-0.767939,0.177753,484068296.672987
0.307401,0.259386,0.054059,0.229516,-0.567514,-0.769502,0.181982,484068296.688144
0.113535,0.232297,-0.119840,0.233067,-0.564017,-0.769914,0.186541,484068296.704898
-0.036407,0.102606,-0.594290,0.229305,-0.566261,-0.770191,0.183229,484068296.705551
-0.050048,0.031269,-0.153976,0.217678,-0.573749,-0.770597,0.172074,484068296.719811
-0.042370,0.008282,0.185336,0.206210,-0.581883,-0.770006,0.161184,484068296.735417
-0.134805,0.030530,0.166112,0.198147,-0.588403,-0.768686,0.153758,484068296.735797
-0.192891,0.051673,0.015785,0.192972,-0.593143,-0.767203,0.149474,484068296.751276
-0.007212,0.092450,-0.218816,0.189479,-0.597296,-0.765279,0.147254,484068296.766978
0.081867,0.148536,-0.234511,0.186293,-0.601835,-0.762769,0.145853,484068296.767516
0.152585,0.179524,-0.217878,0.183021,-0.607120,-0.759630,0.144471,484068296.783003
0.197903,0.207371,-0.199163,0.179812,-0.613017,-0.755938,0.142951,484068296.798422
0.219684,0.240553,-0.199956,0.176808,-0.619254,-0.751840,0.141422,484068296.798898
0.216029,0.270533,-0.205064,0.174419,-0.625620,-0.747383,0.139986,484068296.814205
0.204464,0.271678,-0.250083,0.172122,-0.631783,-0.743039,0.138269,484068296.830031
0.205578,0.288618,-0.252338,0.170216,-0.637704,-0.738753,0.136396,484068296.830454
0.200656,0.272770,-0.270343,0.169202,-0.643351,-0.734377,0.134762,484068296.845953
0.164053,0.272836,-0.289160,0.169232,-0.648729,-0.729894,0.133289,484068296.860979
0.164002,0.183127,-0.342692,0.169452,-0.653799,-0.725686,0.131197,484068296.861344
0.159083,-0.028588,-0.536883,0.168570,-0.658963,-0.721860,0.127554,484068296.877772
0.157945,-0.141148,-0.597098,0.165618,-0.664804,-0.718215,0.121544,484068296.892904
0.160598,-0.244155,-0.561601,0.159929,-0.671634,-0.714557,0.112864,484068296.893286
0.184892,-0.397158,-0.427028,0.151698,-0.679247,-0.710700,0.102551,484068296.909571
0.163913,-0.466493,-0.171928,0.142416,-0.686556,-0.706880,0.093160,484068296.924450
0.067826,-0.394318,0.044294,0.134240,-0.692212,-0.703743,0.086990,484068296.924864
-0.089550,-0.257048,0.054044,0.128367,-0.695600,-0.701825,0.084286,484068296.940269
-0.212090,-0.103663,-0.041495,0.124901,-0.696971,-0.701165,0.083656,484068296.956168
-0.235593,0.061103,-0.119505,0.124197,-0.696815,-0.701366,0.084324,484068296.956620
-0.167414,0.199474,-0.199815,0.125865,-0.695673,-0.702101,0.085160,484068296.971401
-0.071985,0.233164,-0.232210,0.128333,-0.693601,-0.703753,0.084732,484068296.987334
-0.091261,0.247578,-0.209491,0.131232,-0.690346,-0.706618,0.083015,484068296.988027
-0.176416,0.331566,-0.140801,0.135512,-0.685686,-0.710542,0.081246,484068297.002851
-0.129664,0.388850,-0.057001,0.142076,-0.679799,-0.714984,0.080536,484068297.018731
-0.179025,0.432052,0.014379,0.151234,-0.672924,-0.719523,0.081169,484068297.019155
-0.113667,0.332467,0.097710,0.163098,-0.665313,-0.723777,0.083096,484068297.034143
0.004032,-0.038105,0.089382,0.177434,-0.657381,-0.727129,0.087470,484068297.050179
0.225781,-0.594090,0.015195,0.191991,-0.649935,-0.729067,0.095841,484068297.050745
0.330477,-0.854951,0.098557,0.203709,-0.642895,-0.730128,0.110009,484068297.065954
0.221146,-0.673379,0.152420,0.211456,-0.634969,-0.731754,0.128989,484068297.081641
-0.014336,-0.335842,0.102424,0.216006,-0.625353,-0.735054,0.148227,484068297.082177
-0.325281,-0.308299,-0.142659,0.215550,-0.615123,-0.741298,0.160123,484068297.097470
-0.574594,-0.539297,-0.137811,0.210523,-0.605478,-0.750036,0.162859,484068297.113254
-0.142077,-0.832074,0.390647,0.204070,-0.595387,-0.760072,0.161743,484068297.113705
-0.017492,-0.686097,0.511167,0.198507,-0.583983,-0.770172,0.162463,484068297.129380
0.041213,-0.526844,0.570319,0.195001,-0.570677,-0.780386,0.165228,484068297.144417
0.144787,-0.379500,0.724040,0.194194,-0.555419,-0.790651,0.169320,484068297.144789
0.272766,-0.204733,0.893852,0.196403,-0.538224,-0.800600,0.175443,484068297.160367
0.313414,-0.050435,0.733893,0.201467,-0.520518,-0.809149,0.183713,484068297.175958
0.307744,0.043827,0.552471,0.211122,-0.506150,-0.813871,0.191973,484068297.176330
0.296562,0.083360,0.466840,0.221079,-0.493000,-0.816676,0.202768,484068297.191584
0.198649,0.161973,0.420630,0.234762,-0.482464,-0.816035,0.214946,484068297.207698
0.081121,0.231124,0.376376,0.252460,-0.473807,-0.812275,0.227990,484068297.208062
-0.041348,0.268863,0.290407,0.273375,-0.466583,-0.805962,0.240815,484068297.223197
-0.098489,0.254693,-0.138960,0.295478,-0.461213,-0.797700,0.252290,484068297.238846
-0.137268,0.295773,-0.333114,0.314840,-0.458644,-0.789097,0.260474,484068297.239202
-0.176634,0.308986,-0.347154,0.327920,-0.459219,-0.782198,0.264108,484068297.254561
-0.204640,0.296548,-0.246096,0.334517,-0.461863,-0.777974,0.263699,484068297.270338
-0.192996,0.245156,-0.180667,0.335933,-0.464791,-0.776595,0.260804,484068297.270704
-0.220169,0.202716,-0.134612,0.334290,-0.466676,-0.777331,0.257332,484068297.285971
-0.282301,0.192546,-0.093943,0.332708,-0.466570,-0.778785,0.255172,484068297.302079
-0.327274,0.188314,-0.067114,0.333753,-0.463818,-0.779719,0.255967,484068297.302514
-0.323749,0.163974,-0.078333,0.337745,-0.458598,-0.779619,0.260403,484068297.317438
-0.324253,0.141825,-0.122324,0.343302,-0.451657,-0.778705,0.267896,484068297.333395
-0.316009,0.114357,-0.136963,0.348954,-0.443635,-0.777504,0.277320,484068297.333814
-0.305265,0.083210,-0.093843,0.353632,-0.435006,-0.776515,0.287644,484068297.349110
-0.195155,0.028573,0.054735,0.356747,-0.426063,-0.775967,0.298456,484068297.364593
-0.145407,0.029108,0.076423,0.358188,-0.417368,-0.775717,0.309464,484068297.364957
-0.117604,0.060036,0.099529,0.357700,-0.409977,-0.775643,0.319918,484068297.380651
-0.135022,0.108911,0.070992,0.356526,-0.405270,-0.774733,0.329294,484068297.396281
-0.183880,0.164933,0.082623,0.357134,-0.403949,-0.771570,0.337580,484068297.396661
-0.187772,0.222840,0.181498,0.361114,-0.405321,-0.765480,0.345475,484068297.412065
-0.122207,0.246544,0.214379,0.368688,-0.408467,-0.756463,0.353537,484068297.428746
-0.058058,0.247933,0.041155,0.377460,-0.414976,-0.745641,0.359637,484068297.429152
0.048696,0.263033,0.136354,0.385716,-0.424709,-0.734325,0.362785,484068297.444305
0.113055,0.301017,0.154146,0.394780,-0.434132,-0.722480,0.365653,484068297.459074
0.138276,0.286166,-0.073451,0.404259,-0.442401,-0.711201,0.367491,484068297.459453
0.261567,-0.184303,-0.190355,0.414958,-0.448920,-0.700597,0.368028,484068297.474904
0.335137,-0.424880,-0.141017,0.426927,-0.453778,-0.690495,0.367472,484068297.491016
0.451454,-0.630525,-0.076822,0.437369,-0.455992,-0.683028,0.366405,484068297.492264
0.469535,-0.598188,-0.156327,0.444033,-0.455519,-0.679382,0.365755,484068297.506157
0.407003,-0.319665,-0.329704,0.446656,-0.453885,-0.679074,0.365163,484068297.522105
0.342904,-0.125648,-0.455083,0.445536,-0.452967,-0.680977,0.364128,484068297.522691
0.182057,-0.004117,-0.444185,0.442199,-0.453397,-0.683843,0.362285,484068297.537774
0.124578,0.027958,-0.376387,0.438865,-0.454437,-0.686537,0.359932,484068297.553707
0.167288,-0.003129,-0.312090,0.437233,-0.455131,-0.688204,0.357853,484068297.554112
0.214694,-0.166170,-0.226272,0.439366,-0.454466,-0.687584,0.357277,484068297.569423
0.234712,-0.417928,-0.100065,0.446537,-0.451553,-0.683973,0.359005,484068297.584868
0.104043,-0.804704,0.112089,0.457120,-0.446335,-0.678236,0.363073,484068297.585289
0.084012,-0.793631,0.202078,0.468784,-0.439479,-0.671247,0.369496,484068297.600778
0.066553,-0.684695,0.258782,0.480122,-0.431549,-0.663093,0.378888,484068297.616444
-0.033548,-0.495016,0.246036,0.490205,-0.423122,-0.653811,0.391405,484068297.616805
-0.131315,-0.337943,0.222765,0.499049,-0.414554,-0.643305,0.406514,484068297.631959
-0.317779,-0.163360,0.099438,0.506416,-0.406371,-0.632094,0.422922,484068297.648002
