ax,ay,az,qx,qy,qz,qw,ts
-0.011557,0.002990,-0.030836,0.274115,0.034964,0.336293,0.900303,484068018.025531
-0.010854,-0.011107,-0.025780,0.273639,0.034509,0.336798,0.900276,484068018.041169
-0.008166,-0.026016,-0.019240,0.273333,0.033981,0.337329,0.900191,484068018.041463
0.008846,-0.038744,-0.006809,0.272810,0.033397,0.338100,0.900082,484068018.056873
-0.000594,-0.031318,0.012745,0.272141,0.032847,0.339096,0.899930,484068018.072619
-0.031641,0.007002,0.031469,0.271722,0.032002,0.340195,0.899673,484068018.072897
-0.027133,-0.000820,0.028808,0.270891,0.032056,0.341162,0.899555,484068018.088304
-0.014250,-0.012539,0.024727,0.270075,0.032564,0.342207,0.899385,484068018.104287
-0.000826,-0.016798,0.016323,0.269284,0.033456,0.343433,0.899122,484068018.104624
-0.007484,-0.013203,0.000723,0.268760,0.034612,0.344838,0.898697,484068018.119914
-0.022095,0.001227,-0.018112,0.268134,0.035854,0.346267,0.898286,484068018.135670
-0.023227,0.013796,-0.040354,0.267682,0.037042,0.347529,0.897885,484068018.136007
-0.022674,0.014836,-0.040727,0.267468,0.037909,0.348584,0.897504,484068018.151172
-0.027662,0.008321,-0.038640,0.267028,0.037811,0.349570,0.897255,484068018.167091
-0.027969,0.012061,-0.042580,0.266943,0.037719,0.350224,0.897029,484068018.168266
-0.015348,0.008656,-0.016575,0.266845,0.037172,0.350834,0.896843,484068018.182707
-0.009412,-0.003691,0.000673,0.266645,0.036304,0.351502,0.896677,484068018.198931
-0.025444,0.007926,0.022363,0.266441,0.034990,0.352289,0.896481,484068018.199201
-0.051951,0.019043,-0.016679,0.265869,0.034174,0.352895,0.896443,484068018.214277
-0.029942,0.029140,-0.022579,0.265490,0.033619,0.353288,0.896422,484068018.230025
-0.032458,0.028900,-0.024813,0.264993,0.032579,0.353774,0.896416,484068018.230295
-0.043913,0.026167,-0.015630,0.265186,0.032437,0.353925,0.896304,484068018.245899
-0.039732,0.028963,0.003439,0.265438,0.032404,0.353956,0.896218,484068018.263215
-0.037518,0.028385,0.011301,0.265662,0.032539,0.353850,0.896189,484068018.263452
-0.034262,0.027285,0.013545,0.265871,0.031991,0.353827,0.896156,484068018.277414
-0.027730,0.021619,-0.001265,0.266155,0.032331,0.353511,0.896184,484068018.293244
-0.009913,0.009128,-0.003769,0.266556,0.032693,0.353186,0.896180,484068018.293491
-0.000052,-0.008692,0.010324,0.266949,0.033025,0.353062,0.896100,484068018.308659
0.013937,-0.013829,0.029925,0.267571,0.033703,0.353027,0.895903,484068018.324463
0.010791,-0.004354,0.028665,0.267840,0.034111,0.353268,0.895712,484068018.324820
0.014653,0.004009,0.035989,0.268121,0.034588,0.353528,0.895507,484068018.340317
0.013697,-0.001056,0.026462,0.268635,0.035478,0.353720,0.895242,484068018.355800
0.014901,-0.015526,0.050277,0.268965,0.035906,0.354023,0.895006,484068018.356036
0.014985,-0.002610,0.097959,0.268947,0.035949,0.354305,0.894898,484068018.371658
0.016129,0.001771,0.083171,0.268369,0.035826,0.354581,0.894968,484068018.387888
0.055839,-0.036720,-0.020589,0.267950,0.037233,0.354831,0.894936,484068018.388116
0.029529,-0.064330,-0.094910,0.268514,0.038843,0.355855,0.894292,484068018.403070
0.024605,-0.063228,-0.090155,0.270211,0.042100,0.357274,0.893067,484068018.418964
0.023331,-0.000908,-0.050437,0.272633,0.046631,0.358755,0.891511,484068018.419230
0.060476,0.045743,-0.013221,0.275099,0.051454,0.359738,0.890091,484068018.435155
0.101959,0.027890,0.218212,0.276211,0.056370,0.359915,0.889377,484068018.450876
0.146643,-0.027639,0.140208,0.275241,0.061862,0.359426,0.889510,484068018.451900
0.206233,-0.045725,0.116813,0.273482,0.066714,0.359721,0.889583,484068018.467315
0.197214,-0.003155,0.124785,0.271226,0.071495,0.361291,0.889266,484068018.482301
0.152188,0.056625,0.149413,0.268457,0.077677,0.363808,0.888561,484068018.482731
0.194377,0.131537,0.205090,0.265159,0.085654,0.367318,0.887373,484068018.498034
0.356724,0.276912,0.300885,0.261144,0.093609,0.372321,0.885674,484068018.513800
0.430983,0.209033,0.269555,0.256888,0.098891,0.378885,0.883558,484068018.514197
0.107418,0.128425,0.180116,0.252417,0.102600,0.385469,0.881574,484068018.529805
-0.237288,0.084351,0.080639,0.248100,0.105586,0.389652,0.880607,484068018.545483
-0.279085,0.136206,-0.041811,0.245029,0.108136,0.390952,0.880582,484068018.545957
0.079732,0.147965,0.066883,0.243940,0.109378,0.390890,0.880758,484068018.561352
0.072089,0.083057,0.218136,0.242840,0.109749,0.390655,0.881120,484068018.576237
0.082267,0.088336,0.346784,0.240990,0.110691,0.390765,0.881461,484068018.576502
0.064508,0.079407,0.390011,0.237936,0.113443,0.391498,0.881616,484068018.592358
0.056911,0.119419,0.359475,0.233548,0.117390,0.393031,0.881591,484068018.608096
0.083795,0.134839,0.343504,0.228588,0.123071,0.394950,0.881258,484068018.609747
0.094261,0.132230,0.329946,0.222867,0.130477,0.397427,0.880544,484068018.623913
0.100885,0.179032,0.297266,0.216596,0.139105,0.400129,0.879564,484068018.639732
0.103916,0.246616,0.252751,0.210093,0.148934,0.402630,0.878390,484068018.640116
0.107159,0.312027,0.190898,0.203910,0.159641,0.404353,0.877174,484068018.655336
0.085917,0.383014,0.154778,0.198386,0.170736,0.404902,0.876097,484068018.671046
0.221860,0.252247,0.229398,0.192846,0.181686,0.404862,0.875150,484068018.671421
0.246684,0.188375,0.226249,0.186285,0.190329,0.404950,0.874693,484068018.687489
0.240143,0.139377,0.201255,0.178280,0.194678,0.405230,0.875275,484068018.702424
0.198584,0.088294,0.181450,0.168931,0.195391,0.405910,0.876654,484068018.702790
0.158991,0.102015,0.102556,0.158658,0.194442,0.407229,0.878171,484068018.718164
0.108401,0.143630,0.009173,0.148313,0.193855,0.409161,0.879210,484068018.734048
0.000414,0.136643,-0.023404,0.138412,0.194623,0.411202,0.879703,484068018.734410
-0.057382,0.135672,-0.018487,0.128784,0.196805,0.413065,0.879807,484068018.749784
-0.079465,0.139374,-0.045107,0.119327,0.200227,0.414611,0.879641,484068018.766059
-0.107266,0.117475,-0.057247,0.109766,0.204557,0.415922,0.879271,484068018.766473
-0.109999,0.093516,-0.074205,0.099767,0.209804,0.417086,0.878674,484068018.781469
-0.114707,0.114073,-0.061486,0.088945,0.216235,0.417900,0.877890,484068018.797067
-0.068942,-0.005412,-0.022480,0.077071,0.225325,0.418572,0.876405,484068018.797453
0.101887,-0.208447,-0.393336,0.064167,0.236771,0.419639,0.873914,484068018.812944
0.238362,-0.249123,-0.713517,0.051323,0.246648,0.422184,0.870800,484068018.827786
0.067552,-0.284085,-0.846969,0.040664,0.253954,0.425905,0.867444,484068018.828031
-0.188963,-0.332663,-0.894489,0.032361,0.257220,0.429503,0.865054,484068018.843628
-0.323529,-0.315520,-0.851909,0.026216,0.256501,0.432016,0.864223,484068018.860250
-0.245294,-0.258382,-0.742561,0.021247,0.253068,0.433863,0.864447,484068018.860847
-0.233452,-0.224624,-0.722971,0.017280,0.248123,0.435249,0.865271,484068018.875784
-0.229927,-0.231896,-0.718756,0.014706,0.242519,0.436157,0.866450,484068018.891339
-0.252326,-0.245669,-0.678956,0.013532,0.236692,0.436621,0.867845,484068018.892226
-0.281880,-0.270101,-0.604584,0.013441,0.230723,0.436787,0.869370,484068018.907252
-0.303712,-0.244482,-0.427822,0.013954,0.224843,0.436908,0.870840,484068018.922978
-0.317970,-0.199830,-0.360356,0.014666,0.219275,0.436951,0.872226,484068018.923819
-0.317485,-0.187921,-0.348496,0.015598,0.214028,0.436681,0.873647,484068018.939088
-0.315317,-0.152371,-0.289004,0.016940,0.209022,0.435961,0.875192,484068018.954358
-0.300158,-0.151178,-0.264570,0.018704,0.204417,0.434725,0.876857,484068018.954751
-0.288299,-0.130979,-0.203083,0.020772,0.200492,0.433057,0.878541,484068018.969953
-0.261091,-0.170473,-0.199565,0.023487,0.197322,0.431332,0.880037,484068018.985696
-0.227730,-0.135684,-0.144014,0.026769,0.195198,0.429619,0.881254,484068018.986058
-0.236110,-0.132516,-0.124396,0.030705,0.193996,0.427962,0.882197,484068019.001705
-0.242468,-0.106472,-0.063074,0.034791,0.193724,0.426198,0.882959,484068019.017071
-0.212402,-0.092375,-0.025460,0.038602,0.194358,0.424366,0.883543,484068019.017553
-0.142002,-0.112690,-0.030537,0.042103,0.195409,0.422663,0.883968,484068019.032864
-0.115666,-0.103871,-0.041530,0.045364,0.196345,0.421200,0.884297,484068019.049299
-0.095721,-0.077818,-0.051430,0.048433,0.196754,0.420044,0.884593,484068019.049666
-0.098370,-0.042197,-0.055495,0.051211,0.196173,0.419004,0.885059,484068019.064240
-0.108816,-0.017836,-0.043912,0.053732,0.194302,0.417831,0.885877,484068019.080212
-0.104067,-0.008888,-0.022857,0.056116,0.191371,0.416558,0.886965,484068019.080677
-0.076463,-0.001340,0.003867,0.058328,0.187798,0.415265,0.888192,484068019.096061
-0.051734,0.018515,0.005598,0.060406,0.183861,0.414049,0.889444,484068019.112029
-0.025760,0.050396,0.010578,0.062439,0.179746,0.412831,0.890709,484068019.112388
-0.003926,0.103443,0.036906,0.064431,0.175677,0.411339,0.892069,484068019.127506
0.014613,0.157137,0.078749,0.066119,0.172233,0.409270,0.893567,484068019.143268
0.036533,0.203987,0.141227,0.067341,0.170115,0.406532,0.895130,484068019.143644
0.047016,0.223472,0.333681,0.067943,0.170356,0.403276,0.896511,484068019.158747
-0.104688,0.520640,0.328288,0.067865,0.173501,0.398821,0.897905,484068019.174568
0.056174,0.236765,0.307584,0.067549,0.179414,0.392304,0.899636,484068019.174927
0.168053,0.099759,0.323104,0.068392,0.187438,0.385316,0.900956,484068019.190174
0.161070,0.138688,0.478787,0.070124,0.196766,0.378742,0.901621,484068019.205987
0.165813,0.145932,0.595182,0.070728,0.206892,0.372900,0.901742,484068019.206486
0.132428,0.151087,0.552037,0.070007,0.216847,0.367480,0.901684,484068019.221858
0.055703,0.193208,0.518769,0.068484,0.225925,0.362063,0.901764,484068019.237497
-0.009380,0.260547,0.503789,0.066394,0.234585,0.356201,0.902044,484068019.237905
-0.055908,0.366329,0.486095,0.063969,0.243991,0.349112,0.902495,484068019.253237
-0.132842,0.426697,0.487054,0.061307,0.255595,0.339993,0.902949,484068019.269392
-0.133421,0.425211,0.603480,0.058523,0.270738,0.328957,0.902809,484068019.269803
-0.127910,0.416290,0.691726,0.055765,0.289978,0.316289,0.901534,484068019.284434
-0.160619,0.469136,0.764911,0.052887,0.313416,0.302255,0.898674,484068019.300669
-0.219615,0.553651,0.810233,0.049513,0.340643,0.286633,0.894065,484068019.301081
-0.273984,0.680477,0.825447,0.045403,0.371056,0.268735,0.887715,484068019.316144
-0.324607,0.813700,0.803320,0.040424,0.404155,0.247734,0.879575,484068019.331903
-0.354542,0.946419,0.746901,0.034676,0.439115,0.222844,0.869665,484068019.332261
-0.351320,1.015702,0.652264,0.028426,0.475082,0.193799,0.857864,484068019.347787
-0.306115,1.042239,0.599840,0.021818,0.511216,0.161012,0.843954,484068019.363438
-0.248038,1.097044,0.552915,0.015144,0.546618,0.124815,0.827890,484068019.363834
-0.152663,1.156237,0.454856,0.008813,0.580222,0.085570,0.809903,484068019.379167
0.040807,1.313022,0.336845,0.002809,0.611315,0.043922,0.790162,484068019.394704
0.123310,1.374660,0.070438,-0.003755,0.638824,0.000266,0.769344,484068019.395060
0.311731,1.361845,-0.113160,-0.011638,0.660891,-0.045016,0.749040,484068019.410347
0.631108,1.173703,-0.179019,-0.020738,0.677607,-0.090832,0.729499,484068019.426400
0.980536,0.905956,-0.296490,-0.029166,0.689894,-0.136139,0.710395,484068019.426810
1.244288,0.678225,-0.302928,-0.035062,0.699047,-0.180121,0.691130,484068019.442116
1.419745,0.523995,-0.326553,-0.038037,0.705272,-0.221979,0.672213,484068019.457869
1.530413,0.410151,-0.318356,-0.038828,0.708202,-0.261310,0.654721,484068019.458399
1.609562,0.277683,-0.289548,-0.038411,0.707627,-0.297552,0.639728,484068019.473428
1.663471,0.101143,-0.188303,-0.037797,0.703653,-0.329833,0.628215,484068019.489577
1.740922,-0.117535,0.011714,-0.037231,0.697277,-0.357084,0.620410,484068019.489970
1.780070,-0.356479,0.207864,-0.036600,0.689837,-0.378426,0.616100,484068019.504947
1.648254,-0.607847,0.400457,-0.036221,0.681972,-0.393548,0.615405,484068019.520577
1.511531,-0.630123,0.376348,-0.036817,0.673825,-0.402902,0.618283,484068019.520991
1.385502,-0.625796,0.324238,-0.038454,0.665491,-0.407466,0.624191,484068019.536990
1.261262,-0.641653,0.307886,-0.041062,0.656938,-0.408471,0.632375,484068019.552216
1.164729,-0.693322,0.361499,-0.044135,0.648105,-0.406837,0.642259,484068019.552723
1.072571,-0.761126,0.508318,-0.046689,0.639768,-0.403107,0.652703,484068019.568004
0.943915,-0.789882,0.624156,-0.048044,0.633034,-0.397498,0.662537,484068019.583773
0.799599,-0.775255,0.698958,-0.048086,0.628378,-0.390219,0.671236,484068019.584133
0.611922,-0.727358,0.776172,-0.047565,0.625983,-0.381354,0.678566,484068019.599384
0.467185,-0.661725,0.822666,-0.047082,0.625514,-0.370948,0.684773,484068019.614826
0.309005,-0.562503,0.846637,-0.047112,0.626773,-0.359379,0.689770,484068019.615218
0.157400,-0.427122,0.824821,-0.047718,0.629634,-0.347059,0.693422,484068019.631638
0.112473,-0.418583,0.683893,-0.048868,0.634380,-0.334324,0.695270,484068019.646473
0.181956,-0.472521,0.564211,-0.049931,0.641108,-0.322366,0.694671,484068019.646814
0.094837,-0.432877,0.512651,-0.051526,0.648355,-0.310275,0.693333,484068019.662302
-0.077144,-0.232914,0.560470,-0.054718,0.655526,-0.297344,0.692010,484068019.678800
-0.267527,-0.126392,0.353656,-0.058502,0.664357,-0.284484,0.688677,484068019.679238
-0.265358,-0.151837,0.021117,-0.061298,0.674479,-0.273103,0.683180,484068019.693637
-0.230851,-0.166784,-0.276367,-0.061264,0.684648,-0.263587,0.676776,484068019.710059
-0.320853,-0.092109,-0.495285,-0.057901,0.693838,-0.256770,0.670302,484068019.710421
-0.363062,-0.038587,-0.512683,-0.052427,0.700951,-0.252545,0.664936,484068019.725776
-0.448247,0.088640,-0.135363,-0.047372,0.707026,-0.248551,0.660373,484068019.740960
-0.604878,0.266054,0.263480,-0.044521,0.713005,-0.243505,0.656009,484068019.741341
-0.706432,0.442404,0.180834,-0.043236,0.719232,-0.239054,0.650914,484068019.756691
-0.754582,0.487026,0.095040,-0.043082,0.725260,-0.236707,0.645067,484068019.772731
-0.690983,0.392163,0.067961,-0.044094,0.730648,-0.236161,0.639091,484068019.773327
-0.551846,0.368040,0.142944,-0.046822,0.735572,-0.236555,0.633074,484068019.787697
-0.514361,0.273434,0.194748,-0.052691,0.739546,-0.236737,0.627894,484068019.803955
-0.326111,0.519317,-0.250704,-0.059590,0.743141,-0.237929,0.622559,484068019.804548
-0.261804,0.488415,-0.671102,-0.064217,0.746359,-0.242780,0.616346,484068019.819644
-0.028064,0.316932,-0.422102,-0.067593,0.748850,-0.248197,0.610781,484068019.835234
0.100662,0.243029,-0.256455,-0.071791,0.750160,-0.252286,0.607007,484068019.835639
0.208895,0.192120,-0.230293,-0.078385,0.749650,-0.254474,0.605908,484068019.850904
0.249122,0.145428,-0.202713,-0.088260,0.746880,-0.254616,0.607906,484068019.866391
0.334823,0.124402,-0.356443,-0.101820,0.741401,-0.252853,0.613207,484068019.866670
0.578475,0.164069,-0.419461,-0.119267,0.732020,-0.249973,0.622443,484068019.883016
0.744663,0.260281,-0.155466,-0.140451,0.718405,-0.246392,0.635184,484068019.898453
1.004172,0.204830,0.004466,-0.164922,0.703050,-0.241541,0.648212,484068019.898849
1.202470,0.163324,0.177211,-0.190359,0.688358,-0.234866,0.659367,484068019.914018
1.132087,0.108010,-0.006533,-0.217299,0.672987,-0.226808,0.669647,484068019.929660
1.018955,-0.329312,0.232601,-0.245675,0.657169,-0.219364,0.677976,484068019.930109
0.732259,-0.601073,0.479490,-0.273126,0.643426,-0.215169,0.681988,484068019.945602
0.498892,-0.534816,0.141237,-0.296506,0.630467,-0.214525,0.684525,484068019.960881
0.244801,-0.534095,0.585887,-0.306719,0.626570,-0.217190,0.682761,484068019.961299
-0.004807,-0.200126,0.297666,-0.301570,0.631611,-0.224331,0.678085,484068019.976726
-0.252512,0.331687,-0.126550,-0.292325,0.636910,-0.232423,0.674441,484068019.992493
-0.554775,0.382453,0.063389,-0.285977,0.641335,-0.236206,0.671650,484068019.992723
-0.900522,0.299705,-0.074747,-0.283581,0.643928,-0.234737,0.670699,484068020.008286
-0.985244,0.005769,-0.003999,-0.283866,0.644308,-0.231977,0.671173,484068020.024175
-0.824956,-0.213716,0.230664,-0.284978,0.646219,-0.230718,0.669296,484068020.024662
-0.663100,-0.299175,0.160140,-0.287417,0.650167,-0.230223,0.664584,484068020.039694
-0.418382,-0.293884,0.047231,-0.291257,0.655323,-0.230011,0.657887,484068020.055660
-0.109210,-0.330171,-0.086452,-0.295355,0.661597,-0.230112,0.649694,484068020.056439
-0.096831,-0.300947,-0.266770,-0.298509,0.666496,-0.229417,0.643461,484068020.071553
-0.300022,-0.152476,-0.299719,-0.300007,0.668165,-0.228261,0.641442,484068020.087328
-0.222262,-0.104986,-0.103743,-0.299137,0.667855,-0.226991,0.642620,484068020.087750
-0.031789,-0.252350,0.195046,-0.296456,0.668032,-0.224693,0.644484,484068020.102963
-0.244033,-0.414183,-0.060750,-0.292060,0.670067,-0.221467,0.645495,484068020.118672
-0.278298,-0.349666,-0.246530,-0.287130,0.670372,-0.218110,0.648526,484068020.119122
-0.049672,-0.121805,-0.035670,-0.281868,0.668334,-0.214752,0.654034,484068020.134308
0.178345,-0.115404,-0.047220,-0.274246,0.667863,-0.211429,0.658821,484068020.149714
0.320385,-0.109814,-0.149072,-0.265071,0.668226,-0.207155,0.663549,484068020.150064
-0.388881,0.004972,0.518116,-0.254943,0.672985,-0.205268,0.663296,484068020.165694
0.162296,-0.384013,0.486102,-0.245048,0.684298,-0.211609,0.653383,484068020.181612
0.912028,0.055194,-1.647691,-0.236094,0.687778,-0.226705,0.647940,484068020.182027
0.768562,0.865253,-1.447827,-0.237774,0.673318,-0.246165,0.655370,484068020.197192
0.234843,0.860879,0.189323,-0.250530,0.654852,-0.268348,0.660601,484068020.213600
0.214462,0.416847,0.789011,-0.262665,0.643882,-0.288442,0.658198,484068020.214062
0.756454,0.823660,-0.084953,-0.270452,0.642725,-0.305503,0.648404,484068020.228579
0.619045,0.686399,-0.661632,-0.271456,0.645278,-0.321162,0.637795,484068020.244614
0.165224,0.588067,-0.274750,-0.267686,0.643856,-0.331444,0.635561,484068020.245021
-0.506015,0.241375,0.365337,-0.263054,0.639812,-0.336893,0.638707,484068020.260402
-0.868430,0.033655,0.630210,-0.261467,0.634876,-0.340908,0.642145,484068020.275879
-1.031564,0.063783,0.557196,-0.265097,0.628817,-0.343092,0.645446,484068020.276333
-0.857597,0.104703,0.406500,-0.272729,0.623370,-0.344502,0.646797,484068020.291666
-0.547910,0.107573,0.172341,-0.281539,0.619539,-0.347245,0.645236,484068020.308225
-0.241229,-0.005911,0.156757,-0.289967,0.617225,-0.351302,0.641513,484068020.308582
-0.147274,-0.227455,0.213347,-0.297883,0.616714,-0.355403,0.636095,484068020.323052
-0.159149,-0.429422,0.203140,-0.305260,0.618134,-0.358603,0.629389,484068020.338794
0.009089,-0.233415,-0.338257,-0.311786,0.619978,-0.361815,0.622500,484068020.339234
0.119345,-0.136208,-0.491759,-0.318789,0.619313,-0.365621,0.617370,484068020.354476
0.278446,-0.283434,-0.278055,-0.328592,0.615135,-0.367678,0.615183,484068020.370217
0.380065,-0.520487,-0.039494,-0.339423,0.610443,-0.365995,0.614979,484068020.370589
0.344015,-0.595933,0.083261,-0.348144,0.607475,-0.361060,0.615959,484068020.385956
0.207661,-0.404898,0.165003,-0.353512,0.607338,-0.355492,0.616275,484068020.401734
0.089475,-0.302657,0.272367,-0.355602,0.610699,-0.351181,0.614219,484068020.402232
-0.033532,-0.256141,0.267509,-0.355784,0.616891,-0.348994,0.609152,484068020.417409
-0.135646,-0.210206,0.151087,-0.356183,0.624266,-0.349073,0.601310,484068020.433649
-0.163000,-0.220742,0.233284,-0.356005,0.633273,-0.353316,0.589401,484068020.434074
-0.158067,-0.078863,-0.951350,-0.364412,0.632607,-0.353820,0.584657,484068020.448902
-0.052554,0.242948,-0.142363,-0.379213,0.624135,-0.350596,0.586289,484068020.464687
0.248292,0.406154,0.642350,-0.393056,0.616632,-0.348876,0.586138,484068020.465046
0.509653,0.068323,0.215630,-0.398477,0.615364,-0.355389,0.579864,484068020.480656
0.516210,-0.196221,0.036370,-0.399026,0.616618,-0.364064,0.572728,484068020.496101
0.332309,-0.302464,-0.055898,-0.397500,0.618374,-0.372577,0.566387,484068020.496464
0.143696,-0.465612,-0.143924,-0.395557,0.619519,-0.380905,0.560929,484068020.512294
0.004338,-0.652913,-0.155726,-0.393307,0.620221,-0.389424,0.555863,484068020.527959
-0.134324,-0.635728,-0.168727,-0.390614,0.620706,-0.398564,0.550719,484068020.528580
-0.163636,-0.678372,-0.199195,-0.387940,0.620322,-0.408319,0.545874,484068020.543254
-0.268278,-0.585385,-0.081236,-0.385652,0.618964,-0.419483,0.540546,484068020.558903
-0.354536,-0.372786,-0.016415,-0.384785,0.616151,-0.432100,0.534405,484068020.559333
-0.400441,-0.164941,-0.016639,-0.387671,0.610637,-0.444989,0.528033,484068020.574838
-0.351417,0.116470,0.622998,-0.395742,0.602822,-0.456975,0.520738,484068020.590434
-0.371990,0.055378,0.423983,-0.405706,0.600958,-0.468646,0.504602,484068020.590801
-0.317822,-0.111932,0.312561,-0.415366,0.602622,-0.481313,0.482343,484068020.606240
-0.245134,-0.256833,0.048491,-0.423213,0.606010,-0.495631,0.456062,484068020.622091
-0.188016,-0.379254,-0.151103,-0.428905,0.608440,-0.511316,0.429415,484068020.622496
-0.129311,-0.494607,-0.308550,-0.433435,0.607840,-0.527300,0.405733,484068020.637679
-0.042801,-0.648517,-0.299957,-0.437893,0.604232,-0.541943,0.386590,484068020.653079
0.015369,-0.725622,-0.178045,-0.442682,0.599571,-0.553829,0.371241,484068020.653302
0.054142,-0.773326,-0.092819,-0.447691,0.595165,-0.562921,0.358429,484068020.668577
0.068068,-0.802226,-0.035438,-0.454571,0.591616,-0.568298,0.346978,484068020.684320
0.083184,-0.801267,-0.001879,-0.461922,0.588769,-0.572196,0.335515,484068020.684602
0.073849,-0.767306,-0.025532,-0.467231,0.586527,-0.577274,0.323165,484068020.700187
0.061872,-0.744772,-0.114062,-0.471040,0.584647,-0.583220,0.310101,484068020.715880
0.095972,-0.786744,-0.092848,-0.474108,0.582907,-0.589680,0.296173,484068020.716147
0.058980,-0.475804,-0.169935,-0.473006,0.580302,-0.600867,0.280131,484068020.731293
-1.855151,3.761005,0.574907,-0.470678,0.573444,-0.620674,0.253748,484068020.747277
-4.034393,7.313775,1.177984,-0.476091,0.554244,-0.655181,0.192065,484068020.747658
-0.050237,4.132250,0.686692,-0.469205,0.529935,-0.697233,0.113503,484068020.762984
0.934799,1.497634,0.509922,-0.444708,0.508850,-0.736066,0.038899,484068020.778699
1.195031,0.211428,0.390714,-0.411751,0.492291,-0.766367,-0.028136,484068020.778927
1.202996,-0.195059,0.061468,-0.380208,0.480271,-0.785779,-0.085633,484068020.794350
1.030535,-0.207299,-0.234203,-0.357874,0.473332,-0.794064,-0.131700,484068020.810420
0.742671,-0.400751,-0.413664,-0.345704,0.473522,-0.793564,-0.162854,484068020.810865
0.458872,-0.394388,-0.281476,-0.340060,0.483552,-0.786845,-0.177234,484068020.826711
0.024657,-0.247766,-0.277808,-0.338715,0.501104,-0.776228,-0.177868,484068020.842239
-0.376493,-0.000188,-0.138481,-0.341225,0.521248,-0.763530,-0.169967,484068020.842647
-0.592204,0.141313,-0.034137,-0.346291,0.540118,-0.750442,-0.158719,484068020.857924
-0.461650,-0.006056,0.079433,-0.353769,0.555597,-0.738078,-0.146289,484068020.873896
-0.277625,-0.226888,0.261226,-0.359406,0.562183,-0.732362,-0.135729,484068020.874316
-0.178066,-0.328238,0.192497,-0.365702,0.562617,-0.730659,-0.125942,484068020.889458
-0.115188,-0.290300,0.208194,-0.374783,0.560721,-0.729136,-0.116148,484068020.905460
-0.092471,-0.200278,0.225884,-0.387398,0.558522,-0.725689,-0.106541,484068020.905835
-0.084521,-0.085289,0.223984,-0.403136,0.556776,-0.719694,-0.097581,484068020.920927
-0.076946,0.009622,0.198075,-0.420388,0.555286,-0.711968,-0.089623,484068020.937023
-0.029068,0.116379,0.204019,-0.436868,0.553998,-0.703827,-0.082822,484068020.937504
0.029077,0.104916,0.219613,-0.450782,0.553421,-0.696103,-0.077207,484068020.952329
0.047012,0.086738,0.248410,-0.460511,0.554156,-0.689518,-0.073527,484068020.968192
0.041095,0.072363,0.282501,-0.464864,0.556538,-0.684702,-0.073149,484068020.968549
0.033040,0.079430,0.185431,-0.463429,0.560338,-0.682112,-0.077325,484068020.983458
0.001293,0.114708,-0.279900,-0.458397,0.564042,-0.681645,-0.084194,484068020.999701
0.033212,0.093477,-0.624449,-0.452860,0.565688,-0.683149,-0.090683,484068021.000081
0.111626,0.034157,-0.753525,-0.448290,0.564533,-0.686559,-0.094744,484068021.015696
0.105224,0.012334,-0.651143,-0.444300,0.561063,-0.691677,-0.096900,484068021.030824
0.115579,0.056087,-0.620331,-0.442658,0.556911,-0.696059,-0.096981,484068021.031319
0.174161,0.162408,-0.664250,-0.446146,0.554666,-0.696093,-0.093564,484068021.046095
0.068323,0.062132,-0.579870,-0.454247,0.555182,-0.691402,-0.086000,484068021.062352
-0.044849,0.014523,-0.522785,-0.467042,0.557471,-0.682346,-0.074179,484068021.062796
-0.075130,-0.060079,-0.396368,-0.483278,0.560104,-0.670230,-0.059309,484068021.078420
-0.064378,-0.061566,-0.209756,-0.500555,0.562153,-0.656985,-0.042425,484068021.094399
-0.187720,0.110152,0.442518,-0.512507,0.560614,-0.649801,-0.028416,484068021.096440
-0.167591,0.077355,0.590191,-0.511490,0.552019,-0.658081,-0.024127,484068021.108830
-0.119265,-0.032268,0.413391,-0.505485,0.540660,-0.671994,-0.024412,484068021.125510
-0.121385,-0.014322,0.372734,-0.500445,0.530137,-0.684036,-0.024581,484068021.125986
-0.049065,-0.056876,0.414873,-0.497782,0.521824,-0.692353,-0.023651,484068021.141099
-0.007644,-0.070971,0.452054,-0.497320,0.516338,-0.696835,-0.022105,484068021.156751
-0.034467,-0.025723,0.420103,-0.499523,0.513955,-0.697075,-0.020326,484068021.157570
0.102799,-0.011037,0.328458,-0.503506,0.514262,-0.694020,-0.018779,484068021.172577
0.122284,-0.020771,0.265828,-0.507377,0.516451,-0.689586,-0.017854,484068021.188669
0.066611,-0.047587,0.226505,-0.509840,0.519461,-0.685503,-0.017598,484068021.189091
-0.011226,-0.059730,0.183624,-0.510723,0.522420,-0.682578,-0.018088,484068021.204164
-0.064719,-0.058529,0.139514,-0.510794,0.525073,-0.680453,-0.019263,484068021.219888
-0.069214,-0.048733,0.123500,-0.510670,0.527603,-0.678539,-0.020870,484068021.220363
-0.044075,-0.033996,0.136534,-0.510121,0.530331,-0.676751,-0.023107,484068021.235576
-0.056520,0.032166,0.181043,-0.508658,0.533497,-0.675236,-0.026548,484068021.251743
-0.105019,0.127657,0.213889,-0.505917,0.537273,-0.674066,-0.031952,484068021.252168
-0.160522,0.201361,0.186151,-0.502286,0.541816,-0.672770,-0.039044,484068021.267259
-0.209976,0.245161,0.113551,-0.498642,0.547183,-0.670623,-0.047036,484068021.282817
-0.217389,0.263600,0.059070,-0.495466,0.553154,-0.667433,-0.055376,484068021.283212
-0.101891,0.212804,-0.008748,-0.492789,0.559478,-0.663386,-0.063735,484068021.298394
0.050987,0.090819,-0.073580,-0.490242,0.566000,-0.658918,-0.071648,484068021.314618
0.188951,-0.045692,-0.261842,-0.487753,0.572353,-0.654518,-0.078196,484068021.314987
0.281202,-0.113901,-0.540928,-0.486904,0.577638,-0.650091,-0.081483,484068021.329888
0.307593,-0.110813,-0.671199,-0.489350,0.580671,-0.645692,-0.080249,484068021.345916
0.347389,-0.114941,-0.482710,-0.493774,0.580711,-0.642755,-0.076337,484068021.346324
0.398761,-0.125626,-0.244311,-0.497255,0.578527,-0.642429,-0.072995,484068021.361242
0.379153,-0.095112,-0.103487,-0.498154,0.575689,-0.644414,-0.071800,484068021.377068
0.324231,-0.057516,-0.072268,-0.496952,0.573424,-0.647296,-0.072329,484068021.377497
0.243385,-0.006096,-0.077923,-0.494616,0.572133,-0.650052,-0.073828,484068021.392912
0.123054,0.077268,-0.059342,-0.491909,0.571568,-0.652366,-0.075855,484068021.408552
-0.064575,0.159770,-0.077229,-0.489024,0.571162,-0.654617,-0.078140,484068021.408915
-0.085831,0.134085,-0.094061,-0.485827,0.570264,-0.657521,-0.080234,484068021.424503
-0.046446,0.062832,-0.106129,-0.482138,0.568394,-0.661638,-0.081892,484068021.440228
-0.028477,0.035034,-0.111019,-0.478171,0.565445,-0.666860,-0.083201,484068021.440651
-0.031513,0.025569,-0.127232,-0.474204,0.561476,-0.672883,-0.084285,484068021.456229
-0.030845,0.010185,-0.127225,-0.470483,0.556921,-0.679174,-0.084891,484068021.471396
0.024544,-0.036393,-0.107408,-0.466954,0.552215,-0.685443,-0.084736,484068021.471624
0.049076,-0.045482,-0.052747,-0.463148,0.547691,-0.691709,-0.084062,484068021.488039
0.004012,-0.012206,0.006076,-0.458758,0.543387,-0.698073,-0.083464,484068021.502412
-0.044628,0.032446,0.045677,-0.453678,0.539146,-0.704642,-0.083534,484068021.502636
-0.080060,0.059555,0.065741,-0.447677,0.534734,-0.711689,-0.084519,484068021.518062
-0.079175,0.057484,0.057020,-0.440705,0.530015,-0.719319,-0.086273,484068021.533699
-0.092292,0.062197,0.074730,-0.432771,0.524994,-0.727498,-0.088529,484068021.533976
-0.053195,0.013351,0.097131,-0.424244,0.519896,-0.735825,-0.091030,484068021.549625
-0.009473,-0.029709,0.124557,-0.415695,0.515118,-0.743720,-0.093440,484068021.566229
-0.015800,-0.019084,0.162546,-0.407889,0.511022,-0.750601,-0.095300,484068021.566525
-0.041242,0.014240,0.199781,-0.402525,0.508060,-0.755401,-0.096007,484068021.580994
-0.061747,0.035731,0.234781,-0.400773,0.506826,-0.757249,-0.095302,484068021.596987
-0.054208,0.025249,0.238244,-0.401632,0.507395,-0.756607,-0.093746,484068021.598326
-0.055867,0.004028,0.221087,-0.403157,0.509313,-0.754683,-0.092295,484068021.613322
-0.061751,0.015872,0.163861,-0.404389,0.511882,-0.752359,-0.091663,484068021.628317
-0.059637,0.020167,0.092739,-0.405074,0.514472,-0.750194,-0.091883,484068021.628580
-0.069420,-0.008037,0.028051,-0.405167,0.516917,-0.748386,-0.092493,484068021.643704
-0.098328,-0.044548,-0.094849,-0.405189,0.519119,-0.746807,-0.092823,484068021.659443
-0.115753,-0.050487,-0.143873,-0.405689,0.520907,-0.745312,-0.092645,484068021.659687
-0.116217,-0.062365,-0.174166,-0.406974,0.522190,-0.743832,-0.091673,484068021.675247
-0.089738,-0.081037,-0.201640,-0.409100,0.522950,-0.742364,-0.089755,484068021.691660
-0.080998,-0.098990,-0.222512,-0.411931,0.523090,-0.741052,-0.086788,484068021.692108
-0.073424,-0.097204,-0.232857,-0.415311,0.522560,-0.739986,-0.082877,484068021.707199
-0.069476,-0.105759,-0.222937,-0.418969,0.521390,-0.739245,-0.078317,484068021.722905
-0.079800,-0.097889,-0.195239,-0.422477,0.519734,-0.738899,-0.073614,484068021.723298
-0.088534,-0.086578,-0.155086,-0.425475,0.517765,-0.738975,-0.069327,484068021.738490
-0.084618,-0.077981,-0.125470,-0.427723,0.515666,-0.739461,-0.065875,484068021.754152
-0.078794,-0.061456,-0.099197,-0.429271,0.513601,-0.740227,-0.063281,484068021.754536
-0.038581,-0.015841,-0.043582,-0.430311,0.511568,-0.741185,-0.061435,484068021.770077
-0.021461,0.007240,-0.017483,-0.430837,0.509673,-0.742274,-0.060354,484068021.785541
0.004300,0.027485,0.008462,-0.430972,0.507861,-0.743461,-0.060044,484068021.785924
0.029688,0.043556,0.029156,-0.430706,0.506265,-0.744687,-0.060241,484068021.801105
0.052620,0.058004,0.034327,-0.430297,0.504917,-0.745792,-0.060802,484068021.817099
0.074685,0.059566,0.042367,-0.429882,0.503865,-0.746693,-0.061411,484068021.817825
0.103830,0.079714,0.054577,-0.429797,0.503034,-0.747272,-0.061766,484068021.832589
0.140666,0.116533,0.079206,-0.431040,0.502546,-0.746961,-0.060839,484068021.848932
0.153339,0.156324,0.105959,-0.434319,0.502196,-0.745515,-0.058083,484068021.849489
0.141215,0.170402,0.132132,-0.438830,0.501667,-0.743529,-0.054067,484068021.863970
0.132502,0.159302,0.149010,-0.443229,0.500832,-0.741783,-0.049735,484068021.880053
0.119833,0.148997,0.160915,-0.446540,0.499693,-0.740812,-0.045904,484068021.880878
0.092792,0.109094,0.132149,-0.448263,0.498501,-0.740740,-0.043132,484068021.896183
0.541839,-0.033624,-1.401144,-0.450687,0.496925,-0.740545,-0.039246,484068021.911443
0.086640,0.258027,-0.274608,-0.462611,0.492219,-0.736986,-0.023725,484068021.912480
-0.066648,0.204953,0.604057,-0.470510,0.485915,-0.736456,-0.011846,484068021.927286
0.084802,-0.005643,0.265347,-0.471987,0.480358,-0.739226,-0.005462,484068021.943183
0.006822,0.023680,0.347002,-0.470871,0.476263,-0.742598,-0.001303,484068021.943917
-0.070293,0.047211,0.517724,-0.468545,0.474803,-0.745002,-0.000489,484068021.958498
-0.062848,0.004541,0.406361,-0.466957,0.475902,-0.745295,-0.001931,484068021.974150
-0.080011,0.001516,0.397687,-0.465233,0.479044,-0.744341,-0.005706,484068021.974618
-0.081385,0.005500,0.498081,-0.460544,0.485054,-0.743253,-0.014035,484068021.990033
-0.063491,0.084828,0.337738,-0.453432,0.493136,-0.741960,-0.026683,484068022.005627
0.117429,0.072057,-0.157757,-0.445464,0.501555,-0.740497,-0.040855,484068022.006045
0.223585,0.033350,-0.310174,-0.436505,0.508919,-0.739941,-0.054331,484068022.021935
0.089037,-0.014209,-0.330827,-0.426594,0.514138,-0.741198,-0.065609,484068022.037746
-0.078543,-0.133058,-0.108742,-0.418747,0.518084,-0.742166,-0.073691,484068022.038311
-0.193670,-0.172517,-0.092922,-0.412180,0.521588,-0.742761,-0.079745,484068022.052553
-0.131714,-0.115574,-0.061411,-0.408065,0.523626,-0.743141,-0.083902,484068022.068584
-0.033285,-0.043223,0.034184,-0.405530,0.525055,-0.743257,-0.086209,484068022.069021
0.006963,-0.003652,0.032966,-0.403460,0.526516,-0.743263,-0.086955,484068022.084331
0.007561,0.030256,-0.003997,-0.401482,0.527928,-0.743381,-0.086545,484068022.099520
-0.005592,0.019740,-0.056888,-0.399645,0.529170,-0.743674,-0.084923,484068022.099754
-0.005679,0.044808,-0.049928,-0.397908,0.530088,-0.744229,-0.082453,484068022.117140
0.075847,0.055574,-0.163895,-0.396717,0.530627,-0.744883,-0.078733,484068022.151901
0.058712,0.048278,-0.132234,-0.396516,0.530714,-0.745482,-0.073309,484068022.155729
0.014523,-0.013930,-0.123841,-0.396858,0.530680,-0.745970,-0.066415,484068022.156046
0.005322,-0.019003,-0.123168,-0.397777,0.530681,-0.746188,-0.057915,484068022.163188
0.057943,-0.009226,-0.051271,-0.398996,0.530659,-0.746201,-0.048855,484068022.163463
0.048117,-0.005220,0.017075,-0.399761,0.530873,-0.746133,-0.040627,484068022.180515
0.001174,0.005518,0.080623,-0.399477,0.531606,-0.746076,-0.034419,484068022.195299
-0.016347,0.019974,0.108107,-0.397277,0.533072,-0.746362,-0.030803,484068022.195582
0.025551,0.021382,0.117192,-0.392912,0.535540,-0.746977,-0.029025,484068022.210751
0.061911,0.052604,0.146055,-0.387308,0.539659,-0.746975,-0.028093,484068022.225592
0.062687,0.119046,0.177228,-0.382055,0.545129,-0.745719,-0.027782,484068022.225877
0.075196,0.069904,0.095297,-0.378376,0.550970,-0.743320,-0.027188,484068022.241152
0.061208,-0.077237,0.031151,-0.375197,0.556638,-0.740784,-0.024921,484068022.256774
0.022250,-0.215864,0.039858,-0.370897,0.562358,-0.738797,-0.019199,484068022.256999
0.065155,-0.143177,-0.044480,-0.364912,0.567896,-0.737693,-0.011961,484068022.272291
0.067412,0.035348,-0.152272,-0.359559,0.572275,-0.737019,-0.004581,484068022.288039
-0.002705,0.203849,-0.102021,-0.357038,0.574952,-0.736172,0.002063,484068022.288312
-0.005417,0.260552,-0.035292,-0.355296,0.576142,-0.736065,0.005748,484068022.303771
-0.002975,0.164004,-0.016935,-0.354842,0.576554,-0.735946,0.007512,484068022.319549
-0.008157,0.054066,-0.002199,-0.355586,0.576799,-0.735385,0.008477,484068022.319824
-0.029737,-0.017297,0.018026,-0.355923,0.577183,-0.734914,0.008971,484068022.335170
-0.067881,-0.023672,0.001840,-0.354777,0.577603,-0.735142,0.008635,484068022.350919
-0.035256,-0.029011,-0.024397,-0.352259,0.577759,-0.736241,0.007563,484068022.351205
0.268621,0.172026,-0.012014,-0.349605,0.577572,-0.737665,0.006050,484068022.366652
0.464213,0.139286,0.197550,-0.348861,0.577157,-0.738353,0.004616,484068022.382385
0.104697,-0.084227,0.203712,-0.344425,0.578894,-0.739087,0.001757,484068022.383513
-0.154150,0.058490,-0.226121,-0.339796,0.580084,-0.740297,-0.001572,484068022.398160
0.008332,0.058559,0.084601,-0.338477,0.580023,-0.740942,-0.003463,484068022.413834
0.132504,0.074937,0.099586,-0.337160,0.580362,-0.741265,-0.005398,484068022.414041
0.148393,0.083706,0.078620,-0.335819,0.580719,-0.741580,-0.007086,484068022.429587
0.126976,0.086494,0.098284,-0.334188,0.580998,-0.742082,-0.008605,484068022.445482
0.093830,0.093935,0.123772,-0.332221,0.581165,-0.742815,-0.010075,484068022.445747
0.085905,0.094582,0.154748,-0.329786,0.581279,-0.743787,-0.011710,484068022.461542
0.084967,0.097877,0.173164,-0.327228,0.581261,-0.744900,-0.013457,484068022.477256
0.153175,0.113933,0.220800,-0.324682,0.581181,-0.746033,-0.015672,484068022.477494
0.207739,0.128902,0.175353,-0.322330,0.581015,-0.747127,-0.018061,484068022.492701
0.200287,0.125350,0.124571,-0.321206,0.580607,-0.747905,-0.018967,484068022.508286
0.152477,0.120742,0.126965,-0.321862,0.579810,-0.748276,-0.017555,484068022.510007
0.107201,0.114935,0.132675,-0.324590,0.578273,-0.748362,-0.013981,484068022.524042
0.087907,0.101078,0.226973,-0.328838,0.576154,-0.748221,-0.008842,484068022.539915
0.076002,0.101898,0.367674,-0.332957,0.574142,-0.747990,-0.003463,484068022.540181
0.064868,0.099939,0.486856,-0.335611,0.572996,-0.747690,0.000707,484068022.555816
0.033734,0.106137,0.471839,-0.337734,0.572782,-0.746887,0.004116,484068022.645138
0.056466,0.114637,0.488556,-0.340398,0.573591,-0.745029,0.007410,484068022.645924
0.142435,0.106682,0.520877,-0.344095,0.575743,-0.741616,0.011160,484068022.647287
0.119933,0.119643,0.787784,-0.348743,0.579770,-0.736227,0.014702,484068022.647722
0.128845,0.153400,0.798688,-0.352986,0.586033,-0.729172,0.016538,484068022.649416
0.096745,0.231309,0.779489,-0.355585,0.594332,-0.721158,0.016147,484068022.649907
0.054719,0.346387,0.645954,-0.356097,0.604303,-0.712625,0.013373,484068022.650087
0.060929,0.480039,0.430110,-0.355249,0.615404,-0.703557,0.009208,484068022.650238
0.138915,0.465880,0.124000,-0.354193,0.626957,-0.693853,0.006304,484068022.650947
0.016749,0.588780,0.072612,-0.352999,0.638356,-0.684012,0.004582,484068022.666361
-0.078079,0.631899,-0.022545,-0.350990,0.649132,-0.674853,0.002440,484068022.666593
-0.034883,0.533897,-0.204475,-0.346270,0.658534,-0.668153,-0.001285,484068022.681257
0.025619,0.360258,-0.314045,-0.339307,0.667426,-0.662855,-0.005982,484068022.697506
-0.013662,0.270516,-0.513867,-0.331923,0.676273,-0.657543,-0.010883,484068022.697972
0.032381,0.166889,-0.628758,-0.324821,0.684943,-0.652004,-0.015339,484068022.713750
0.216637,0.022225,-0.714598,-0.318664,0.692861,-0.646584,-0.018048,484068022.729081
0.354230,-0.006953,-0.499393,-0.313470,0.699746,-0.641666,-0.018913,484068022.729326
0.396918,0.028069,-0.291449,-0.307907,0.706053,-0.637420,-0.019422,484068022.744226
0.378606,0.041033,-0.159290,-0.301598,0.712180,-0.633591,-0.020031,484068022.760608
0.255875,0.056417,-0.021638,-0.294409,0.718262,-0.630062,-0.021092,484068022.760838
0.152024,0.054345,0.048775,-0.286064,0.724341,-0.626846,-0.023704,484068022.777025
0.074270,0.001710,-0.080166,-0.277361,0.730283,-0.623717,-0.027096,484068022.866302
0.011566,-0.061207,-0.109629,-0.268644,0.736145,-0.620484,-0.030332,484068022.868957
-0.038779,-0.122174,-0.164115,-0.259833,0.741783,-0.617356,-0.033410,484068022.869183
-0.080129,-0.166350,-0.195512,-0.250931,0.746875,-0.614727,-0.036348,484068022.869990
-0.100097,-0.203062,-0.219149,-0.241854,0.751216,-0.612901,-0.039161,484068022.870161
-0.129454,-0.216411,-0.197786,-0.232903,0.754757,-0.611843,-0.041781,484068022.870407
-0.147768,-0.191959,-0.169269,-0.224063,0.757520,-0.611548,-0.044372,484068022.870559
-0.138927,-0.172503,-0.132404,-0.215482,0.759558,-0.611892,-0.047192,484068022.870707
-0.115526,-0.159961,-0.097618,-0.207148,0.761043,-0.612666,-0.050428,484068022.871342
-0.098289,-0.138850,-0.079892,-0.199111,0.762086,-0.613723,-0.054067,484068022.886531
-0.098379,-0.128061,-0.058961,-0.191334,0.762863,-0.614880,-0.057909,484068022.886852
-0.085484,-0.148727,-0.017543,-0.183763,0.763507,-0.615983,-0.062074,484068022.901619
-0.076855,-0.163560,0.010822,-0.176396,0.764076,-0.616971,-0.066476,484068022.917543
-0.091716,-0.157682,0.043999,-0.169080,0.764655,-0.617759,-0.071337,484068022.917774
-0.084344,-0.181732,0.053199,-0.161911,0.765293,-0.618262,-0.076570,484068022.933310
-0.087730,-0.212276,0.058855,-0.154957,0.766071,-0.618376,-0.082062,484068022.949007
-0.116086,-0.237291,0.036935,-0.148473,0.766989,-0.618077,-0.087545,484068022.949276
-0.164689,-0.285474,-0.060855,-0.142447,0.767882,-0.617595,-0.092968,484068022.964641
-0.184968,-0.292488,-0.105412,-0.137132,0.768536,-0.617213,-0.097951,484068022.980479
-0.189214,-0.256723,0.017603,-0.132408,0.768958,-0.616950,-0.102685,484068022.981660
-0.181619,-0.185806,0.072833,-0.127846,0.769459,-0.616431,-0.107708,484068022.996145
-0.136456,-0.125032,0.062569,-0.123823,0.770135,-0.615542,-0.112550,484068023.012783
-0.051927,-0.072601,0.084497,-0.120418,0.771100,-0.614248,-0.116632,484068023.013252
0.025545,-0.027912,0.142084,-0.117182,0.772468,-0.612493,-0.120057,484068023.027772
0.043257,-0.002222,0.164065,-0.113836,0.774193,-0.610300,-0.123289,484068023.045193
0.055589,-0.001236,0.152409,-0.110200,0.775988,-0.607977,-0.126736,484068023.045446
0.061918,-0.000759,0.146000,-0.106087,0.777636,-0.605804,-0.130498,484068023.059080
0.041101,0.003033,0.142603,-0.101669,0.779023,-0.603891,-0.134545,484068023.074545
0.086931,-0.003864,0.187904,-0.097028,0.780114,-0.602373,-0.138398,484068023.074849
0.110855,-0.011899,0.194403,-0.092410,0.780875,-0.601325,-0.141782,484068023.090413
0.154086,-0.035060,0.197345,-0.088358,0.781287,-0.600774,-0.144412,484068023.106388
0.179361,-0.038998,0.184376,-0.085049,0.781312,-0.600808,-0.146113,484068023.106622
0.195344,-0.028019,0.178401,-0.082477,0.780912,-0.601515,-0.146816,484068023.122223
0.177793,0.029998,0.209153,-0.080418,0.780083,-0.602847,-0.146895,484068023.139066
0.137874,0.087837,0.288405,-0.078396,0.778886,-0.604557,-0.147316,484068023.140080
0.081589,0.089438,0.349060,-0.076132,0.777404,-0.606437,-0.148598,484068023.153863
0.029141,0.040896,0.349198,-0.073605,0.775746,-0.608318,-0.150828,484068023.169879
0.018701,-0.025017,0.294596,-0.071074,0.773804,-0.610364,-0.153726,484068023.170301
0.016546,-0.078752,0.208028,-0.068809,0.771349,-0.612953,-0.156764,484068023.185726
-0.003521,-0.167119,0.018464,-0.067128,0.768218,-0.616309,-0.159681,484068023.201484
-0.040586,-0.102116,-0.105182,-0.066649,0.764378,-0.620537,-0.161917,484068023.202099
-0.067671,0.013303,-0.129521,-0.068368,0.760028,-0.625611,-0.162159,484068023.217670
-0.069488,0.078418,-0.108854,-0.072827,0.755552,-0.631178,-0.159535,484068023.233950
-0.142616,0.125942,-0.168367,-0.079910,0.751104,-0.636997,-0.153925,484068023.235079
-0.260440,0.286072,-0.268099,-0.089741,0.746644,-0.643032,-0.144845,484068023.249322
-0.379926,0.587016,-0.399108,-0.102145,0.742405,-0.648914,-0.131575,484068023.264369
-0.474015,0.876672,-0.190553,-0.115089,0.737899,-0.654817,-0.116080,484068023.264720
-0.305264,0.834907,0.413175,-0.125183,0.732769,-0.660933,-0.102698,484068023.280375
-0.016106,0.402894,0.340750,-0.133320,0.728319,-0.665868,-0.091636,484068023.295742
0.072926,-0.095990,-0.165576,-0.141705,0.725471,-0.668635,-0.080865,484068023.296165
-0.060883,-0.400458,-0.490657,-0.150479,0.723362,-0.670125,-0.070968,484068023.311765
-0.288322,-0.491230,-0.412503,-0.158809,0.721394,-0.671104,-0.063162,484068023.327677
-0.404281,-0.363416,-0.370625,-0.166859,0.718856,-0.672360,-0.057759,484068023.328137
-0.432142,-0.237489,-0.328739,-0.175109,0.714962,-0.674620,-0.055270,484068023.343099
-0.413657,-0.157596,-0.311985,-0.183304,0.709338,-0.678308,-0.056022,484068023.359339
-0.434368,-0.086937,-0.264118,-0.191255,0.702043,-0.683360,-0.059800,484068023.359792
-0.434078,0.000351,-0.265584,-0.199195,0.693486,-0.689231,-0.066022,484068023.379208
-0.378116,0.052742,-0.246970,-0.207261,0.684296,-0.695241,-0.073627,484068023.391357
-0.235446,-0.030497,-0.235687,-0.215428,0.675465,-0.700523,-0.081272,484068023.391592
-0.077268,-0.127955,-0.255610,-0.223789,0.667657,-0.704624,-0.087506,484068023.405932
0.048414,-0.150415,-0.259913,-0.232033,0.661368,-0.707371,-0.091543,484068023.421990
0.179781,-0.115982,-0.208998,-0.238754,0.657065,-0.708854,-0.093742,484068023.422591
0.251499,0.064466,-0.102643,-0.242710,0.654472,-0.709622,-0.095886,484068023.437177
0.331361,0.147454,-0.101421,-0.242783,0.652962,-0.710402,-0.100130,484068023.453138
0.384827,0.203384,-0.256112,-0.238952,0.652195,-0.711537,-0.106109,484068023.453551
0.464729,0.205301,-0.257109,-0.233165,0.651812,-0.713017,-0.111274,484068023.468868
0.518161,0.165366,-0.199239,-0.225357,0.651435,-0.715339,-0.114617,484068023.484731
0.478491,0.185722,-0.088285,-0.213982,0.646672,-0.722547,-0.118122,484068023.485142
0.452309,0.212033,0.017589,-0.201749,0.636079,-0.734857,-0.121182,484068023.500435
0.368310,0.249266,0.132596,-0.195240,0.624658,-0.746589,-0.119536,484068023.515983
0.311425,0.242309,0.300510,-0.197842,0.616559,-0.753772,-0.111987,484068023.516493
0.336180,0.147234,0.458534,-0.205829,0.611853,-0.756977,-0.101275,484068023.531744
0.320234,0.109527,0.471899,-0.213716,0.608009,-0.759254,-0.090465,484068023.546901
0.127093,0.149411,0.408378,-0.218718,0.603382,-0.762503,-0.081745,484068023.547123
0.111055,0.070979,0.341204,-0.220868,0.598248,-0.766532,-0.075793,484068023.562952
0.134288,-0.021735,0.295307,-0.221466,0.593545,-0.770433,-0.071346,484068023.579457
0.120403,-0.078828,0.248489,-0.221763,0.589825,-0.773539,-0.067564,484068023.579679
0.087393,-0.105768,0.223789,-0.222220,0.587110,-0.775755,-0.064222,484068023.595962
0.049023,-0.098581,0.210240,-0.222862,0.585089,-0.777307,-0.061624,484068023.611759
0.012747,-0.077174,0.165507,-0.223523,0.583181,-0.778704,-0.059645,484068023.612264
-0.015412,-0.059526,0.153995,-0.224164,0.580827,-0.780378,-0.058310,484068023.626564
-0.026462,-0.057348,0.134783,-0.224857,0.577807,-0.782463,-0.057710,484068023.645213
-0.025297,-0.065074,0.114476,-0.225874,0.574209,-0.784827,-0.057542,484068023.645763
-0.059791,-0.018924,0.101041,-0.227406,0.570125,-0.787346,-0.057710,484068023.657813
-0.090086,0.051363,0.089461,-0.229652,0.565600,-0.789934,-0.057981,484068023.673873
-0.088410,0.074685,0.102826,-0.232809,0.560809,-0.792406,-0.058183,484068023.674302
-0.042458,0.034759,0.152367,-0.236484,0.555837,-0.794806,-0.058340,484068023.688228
-0.009498,0.058585,0.214168,-0.239901,0.550808,-0.797258,-0.058637,484068023.703993
0.009750,0.164489,0.300086,-0.241690,0.545640,-0.800206,-0.059445,484068023.705117
-0.003997,0.309910,0.382518,-0.239902,0.539266,-0.804888,-0.061597,484068023.719825
0.007069,0.374556,0.417666,-0.235108,0.531729,-0.811015,-0.065140,484068023.735590
0.053249,0.381166,0.473066,-0.230120,0.523949,-0.817193,-0.068690,484068023.735870
0.135880,0.421134,0.576145,-0.228187,0.517058,-0.821939,-0.070704,484068023.752167
0.253750,0.490426,0.691246,-0.231961,0.513141,-0.823387,-0.070100,484068023.767923
0.377436,0.501295,0.766080,-0.239430,0.513878,-0.820980,-0.067778,484068023.768446
0.457441,0.480742,0.761164,-0.245141,0.518647,-0.816454,-0.065684,484068023.783441
0.271862,0.678782,0.516907,-0.245265,0.524496,-0.812687,-0.065487,484068023.799010
0.194272,0.725311,0.272697,-0.240039,0.529252,-0.811006,-0.067401,484068023.799429
0.133935,0.704083,0.150337,-0.233222,0.532664,-0.810563,-0.069748,484068023.815347
0.151658,0.647269,0.314760,-0.227615,0.535692,-0.810051,-0.071012,484068023.834327
0.197953,0.597662,0.591763,-0.223651,0.539437,-0.808701,-0.070637,484068023.834558
0.183335,0.608579,0.916841,-0.222788,0.545654,-0.805020,-0.067596,484068023.848283
0.095314,0.555800,1.331548,-0.226061,0.556982,-0.796729,-0.062368,484068023.866203
0.015193,0.423476,1.594631,-0.229684,0.573339,-0.784300,-0.058328,484068023.866447
-0.047511,0.313478,1.794488,-0.226588,0.592727,-0.770485,-0.060708,484068023.879248
-0.143765,0.296729,1.003793,-0.220143,0.611957,-0.756811,-0.065450,484068023.894559
-0.162265,0.272812,0.082722,-0.214184,0.628669,-0.744494,-0.068036,484068023.894956
0.088236,0.267235,-0.899340,-0.209264,0.643491,-0.733074,-0.068782,484068023.909449
0.074192,0.278249,-0.900375,-0.204470,0.657783,-0.721726,-0.068000,484068023.924789
-0.146732,0.402767,-0.542624,-0.199120,0.672247,-0.709977,-0.066087,484068023.925414
-0.526419,0.678234,-0.529833,-0.193148,0.686958,-0.697597,-0.064349,484068023.940962
-0.945154,0.915322,-0.725066,-0.189029,0.700758,-0.684974,-0.063378,484068023.956486
-1.231444,0.972382,-1.007628,-0.190530,0.711414,-0.673481,-0.063339,484068023.956962
-0.994435,0.692335,-1.115652,-0.198950,0.717663,-0.664379,-0.063082,484068023.971459
-0.593212,0.356164,-1.089402,-0.211912,0.719710,-0.658393,-0.060243,484068023.987682
-0.213567,0.110389,-0.478444,-0.225476,0.719083,-0.655152,-0.053448,484068023.987990
0.123212,0.008388,0.244721,-0.238353,0.719681,-0.650842,-0.040640,484068024.003754
0.224134,0.058085,0.677519,-0.248216,0.724194,-0.642925,-0.024071,484068024.019334
0.173490,0.210888,0.925235,-0.247697,0.734006,-0.632211,-0.013807,484068024.019755
-0.011017,0.232152,-0.103598,-0.235607,0.748613,-0.619552,-0.014934,484068024.035441
0.055751,0.182705,-0.531340,-0.219553,0.764018,-0.606275,-0.022446,484068024.051098
0.161724,0.103666,-0.658348,-0.203563,0.778590,-0.592770,-0.031365,484068024.051330
0.204962,-0.092223,-0.860762,-0.189557,0.792007,-0.579094,-0.037987,484068024.067097
0.234771,-0.324139,-0.764794,-0.178051,0.803693,-0.566271,-0.041395,484068024.083646
0.171011,-0.477357,-0.626561,-0.167174,0.814021,-0.554478,-0.044461,484068024.084237
0.120283,-0.530478,-0.605782,-0.156345,0.823407,-0.543320,-0.048588,484068024.099411
0.053563,-0.515267,-0.626279,-0.145549,0.832027,-0.532560,-0.054096,484068024.116904
-0.017917,-0.483414,-0.764284,-0.135651,0.839600,-0.522482,-0.060692,484068024.117142
0.006212,-0.537925,-0.854860,-0.126416,0.845928,-0.513610,-0.068037,484068024.129931
0.099164,-0.559266,-0.731074,-0.115313,0.851463,-0.505621,-0.077854,484068024.146262
0.003958,-0.605190,-1.021107,-0.103562,0.855605,-0.499422,-0.088280,484068024.147215
-0.077573,-0.696516,-0.948003,-0.092403,0.858016,-0.495752,-0.097463,484068024.162401
-0.164677,-0.728414,-0.937963,-0.081867,0.858957,-0.494306,-0.105605,484068024.177276
-0.195504,-0.799303,-0.919847,-0.072876,0.858669,-0.494882,-0.111662,484068024.177718
-0.199116,-0.828256,-0.801466,-0.065733,0.857387,-0.497236,-0.115427,484068024.192766
-0.167245,-0.782146,-0.666397,-0.060358,0.855141,-0.501235,-0.117706,484068024.208203
-0.039432,-0.685799,-0.491647,-0.056171,0.851916,-0.506734,-0.119601,484068024.208832
0.093358,-0.534190,-0.321831,-0.052651,0.847986,-0.513198,-0.121557,484068024.224078
0.151666,-0.419871,-0.172770,-0.050458,0.843533,-0.520622,-0.121897,484068024.239740
0.249674,-0.319192,0.197984,-0.051014,0.838929,-0.529027,-0.117154,484068024.240252
0.362930,-0.033966,0.663555,-0.054475,0.834495,-0.537993,-0.105895,484068024.255501
0.210385,0.411170,1.293337,-0.062648,0.831951,-0.544333,-0.087376,484068024.271160
-0.191480,1.437774,2.745647,-0.071024,0.831706,-0.545921,-0.072046,484068024.271587
-0.107179,1.514252,2.185837,-0.071245,0.832236,-0.544891,-0.073491,484068024.288081
0.041006,1.092507,1.143363,-0.064588,0.832699,-0.543093,-0.086544,484068024.302883
0.077322,0.637881,0.433426,-0.056957,0.832571,-0.541905,-0.099598,484068024.303319
0.030032,0.333737,0.137002,-0.051216,0.831576,-0.542306,-0.108460,484068024.318051
-0.238185,0.246929,0.127294,-0.046258,0.829636,-0.544062,-0.116455,484068024.334455
-0.571209,0.252846,-0.206797,-0.043131,0.826741,-0.547265,-0.123044,484068024.335144
-0.643896,0.194061,-0.310092,-0.043889,0.824222,-0.550968,-0.123150,484068024.349808
-0.348882,0.068243,0.062375,-0.048307,0.823433,-0.553580,-0.114775,484068024.365595
-0.278756,0.210501,0.385539,-0.054928,0.822949,-0.556059,-0.102647,484068024.366157
-0.347265,0.245511,-0.318460,-0.065215,0.821716,-0.559140,-0.088838,484068024.381159
-0.387207,-0.599065,-1.341162,-0.079535,0.819988,-0.562152,-0.072654,484068024.397063
-0.361786,-0.750301,-1.408509,-0.093816,0.817076,-0.566027,-0.056555,484068024.397460
-0.376859,-0.702796,-1.399737,-0.107376,0.812392,-0.571584,-0.042202,484068024.412931
-0.396470,-0.578480,-1.320848,-0.119909,0.805500,-0.579470,-0.031707,484068024.428226
-0.489829,-0.385455,-1.242053,-0.131515,0.795841,-0.590522,-0.024985,484068024.428592
-0.602459,-0.150799,-1.069447,-0.144358,0.783662,-0.603873,-0.019278,484068024.444967
-0.662869,0.032064,-0.900009,-0.159665,0.768979,-0.618863,-0.013691,484068024.459737
-0.658634,0.143284,-0.746257,-0.176246,0.752469,-0.634550,-0.008548,484068024.460176
-0.618903,0.175674,-0.675132,-0.192651,0.734852,-0.650279,-0.004031,484068024.476004
-0.574794,0.278843,-0.634710,-0.208268,0.715953,-0.666360,-0.000233,484068024.491190
-0.341196,0.244104,-0.468989,-0.220697,0.696554,-0.682716,0.002154,484068024.491566
-0.201621,0.248083,-0.310030,-0.229351,0.677228,-0.699109,0.002622,484068024.507139
-0.060881,0.169646,-0.144320,-0.236165,0.658436,-0.714621,0.002082,484068024.522727
0.086368,0.208075,0.149898,-0.241696,0.642441,-0.727222,-0.000156,484068024.523112
0.247029,0.238549,0.233405,-0.245213,0.632519,-0.734680,-0.005962,484068024.538661
0.502167,0.136968,0.221530,-0.246345,0.629395,-0.736865,-0.014333,484068024.554465
0.792048,-0.027682,0.188677,-0.242737,0.631496,-0.736041,-0.023133,484068024.554932
1.015535,-0.195874,0.181985,-0.232993,0.637228,-0.734003,-0.029903,484068024.570087
1.020804,0.011765,-1.092688,-0.231913,0.637371,-0.734510,-0.021681,484068024.586602
0.933212,0.196349,-0.450761,-0.240165,0.628906,-0.739455,-0.002023,484068024.587010
0.868440,0.215594,0.146697,-0.247636,0.617603,-0.746280,0.017564,484068024.601284
0.838580,0.245213,0.432566,-0.251160,0.607595,-0.752790,0.032456,484068024.616549
0.702425,0.296065,0.399418,-0.252486,0.599593,-0.758271,0.041990,484068024.616856
0.529673,0.149126,0.257270,-0.253687,0.592561,-0.763086,0.047045,484068024.632940
0.577168,0.040373,0.227592,-0.255175,0.585709,-0.767670,0.050142,484068024.648086
0.422978,0.000232,0.190302,-0.255875,0.578757,-0.772438,0.053926,484068024.719647
0.253617,0.028029,0.207978,-0.256284,0.570881,-0.777817,0.058430,484068024.721259
0.147969,0.068343,0.251346,-0.256890,0.562080,-0.783674,0.062681,484068024.848351
0.079938,0.121178,0.260634,-0.258465,0.552344,-0.789735,0.066569,484068024.849146
0.013142,0.241453,0.285794,-0.261876,0.541607,-0.795677,0.070574,484068024.849475
-0.019907,0.342689,0.345809,-0.267640,0.530080,-0.801052,0.075500,484068024.849644
-0.070772,0.352073,0.471195,-0.276499,0.517818,-0.805362,0.082487,484068024.850016
-0.193696,0.289174,0.908743,-0.288945,0.506478,-0.807265,0.091184,484068024.850183
-0.257962,0.243847,1.557485,-0.301425,0.499441,-0.806283,0.098022,484068024.850342
0.126365,0.505209,0.852888,-0.309228,0.496960,-0.804537,0.100639,484068024.850485
0.232565,0.511092,0.499533,-0.312875,0.496953,-0.803226,0.099871,484068024.851102
0.331449,0.470427,0.332981,-0.314972,0.497418,-0.802356,0.097943,484068024.851410
0.481743,0.424695,0.329983,-0.317697,0.497383,-0.801402,0.097124,484068024.851686
0.628085,0.384522,0.455955,-0.321155,0.498194,-0.799477,0.097465,484068024.852010
0.779200,0.345017,0.517227,-0.323643,0.501660,-0.796286,0.097579,484068024.852940
0.930061,0.391939,0.348535,-0.325013,0.507203,-0.792109,0.098366,484068024.853112
0.968130,0.536931,0.259698,-0.326311,0.513036,-0.787377,0.101747,484068024.853258
0.970058,0.691311,0.447770,-0.326005,0.520329,-0.782122,0.106133,484068024.853428
0.849589,0.783977,0.618393,-0.324809,0.529508,-0.775804,0.110671,484068024.853628
0.707186,0.648941,0.849314,-0.327284,0.540114,-0.766374,0.117617,484068024.853948
0.802366,0.378061,1.704100,-0.332223,0.556928,-0.750835,0.125323,484068024.869846
0.649821,0.643238,0.816456,-0.331813,0.578084,-0.733668,0.132103,484068024.870283
0.269905,0.909552,0.644127,-0.321792,0.598013,-0.721074,0.137414,484068024.884512
-0.089557,0.993859,0.076342,-0.302501,0.618828,-0.712096,0.135881,484068024.900438
-0.085580,0.962203,-0.463333,-0.278958,0.641138,-0.703795,0.125684,484068024.900899
-0.048520,1.009736,-1.170434,-0.253271,0.663757,-0.695124,0.109926,484068024.916029
-0.353414,1.347795,-1.153579,-0.228557,0.683114,-0.687451,0.092349,484068024.932032
-0.758809,1.625760,-0.829928,-0.207523,0.699227,-0.680364,0.071561,484068024.932511
-0.747663,1.629915,-0.855622,-0.192970,0.712456,-0.673056,0.046533,484068024.947846
-1.206379,1.365409,-0.814824,-0.184543,0.722944,-0.665564,0.017911,484068024.966557
-0.926867,0.859415,-0.951493,-0.181724,0.730879,-0.657817,-0.008355,484068024.967312
-0.482536,0.050775,-1.009491,-0.186640,0.736989,-0.649222,-0.022872,484068024.979669
-0.335872,-0.215459,-0.814658,-0.200475,0.742571,-0.638779,-0.018959,484068024.996024
-0.257801,-0.426748,-0.137397,-0.219002,0.747499,-0.627122,0.001406,484068024.996271
-0.420870,-0.413304,0.395825,-0.232700,0.751244,-0.617137,0.025004,484068025.010784
-0.382083,-0.386435,0.119588,-0.240804,0.754277,-0.609249,0.043541,484068025.028621
-0.186176,-0.402436,-0.180804,-0.245940,0.757753,-0.601544,0.058896,484068025.028897
-0.141647,-0.456565,-0.188701,-0.247177,0.763293,-0.592886,0.069090,484068025.041990
-0.042935,-0.362423,-0.251032,-0.241231,0.772896,-0.582768,0.069435,484068025.057190
0.079881,-0.305425,-0.858434,-0.231890,0.783800,-0.572433,0.064844,484068025.057631
0.293760,-0.370048,-1.001864,-0.222416,0.793705,-0.562823,0.061595,484068025.073451
0.350816,-0.432874,-0.958829,-0.213702,0.802285,-0.553956,0.061673,484068025.089362
0.258943,-0.491723,-0.798717,-0.205595,0.810061,-0.545449,0.063371,484068025.089604
0.201052,-0.496775,-0.572060,-0.195839,0.818080,-0.537113,0.062465,484068025.104982
0.092672,-0.479353,-0.767148,-0.184308,0.825973,-0.529550,0.058112,484068025.121355
-0.062849,-0.507571,-0.758093,-0.172896,0.832922,-0.523174,0.051359,484068025.122169
-0.110283,-0.658304,-0.868055,-0.162322,0.838791,-0.518002,0.041899,484068025.137998
-0.141773,-0.815614,-0.970003,-0.151936,0.843449,-0.514321,0.031367,484068025.152483
-0.241025,-0.863100,-1.105814,-0.141160,0.846935,-0.512173,0.021297,484068025.153845
-0.407639,-0.873887,-1.077053,-0.130168,0.849000,-0.511970,0.011897,484068025.168200
-0.454720,-0.896274,-1.063021,-0.118445,0.849402,-0.514281,0.001605,484068025.183399
-0.388837,-0.949567,-1.125182,-0.105426,0.847526,-0.520081,-0.010015,484068025.183894
-0.261115,-0.971118,-1.127843,-0.091773,0.843368,-0.528969,-0.022369,484068025.200128
-0.188121,-0.921552,-1.166201,-0.080551,0.837441,-0.539553,-0.032977,484068025.216421
-0.022061,-0.618372,-0.926246,-0.073533,0.830042,-0.551376,-0.040094,484068025.216760
0.149880,-0.399417,-0.710131,-0.070238,0.820608,-0.565565,-0.042496,484068025.234985
0.485624,0.086688,-0.140623,-0.071143,0.808591,-0.582967,-0.035617,484068025.251240
0.277478,1.216892,2.650137,-0.082994,0.797444,-0.597593,-0.008841,484068025.251651
-0.132871,3.157420,6.863934,-0.104027,0.799006,-0.591546,0.028986,484068025.262326
-0.195984,3.599307,2.883144,-0.102979,0.800754,-0.589396,0.028293,484068025.278117
-0.189643,3.598542,2.887222,-0.097240,0.800198,-0.591449,0.020373,484068025.278566
0.322834,0.632003,0.516122,-0.092616,0.799986,-0.592606,0.016219,484068025.293629
0.396058,-0.222541,0.173933,-0.089229,0.799730,-0.593508,0.014760,484068025.309475
0.319944,-0.580518,-0.103247,-0.087575,0.798067,-0.595967,0.015611,484068025.309893
-0.190339,-0.345649,0.217696,-0.087772,0.795861,-0.598860,0.016369,484068025.325470
-0.521849,-0.124043,0.057754,-0.090081,0.793692,-0.601298,0.019460,484068025.341205
-0.917231,0.754289,-0.815000,-0.091999,0.789915,-0.605851,0.022701,484068025.341624
-1.008189,1.028455,-1.736952,-0.096346,0.784627,-0.611878,0.026134,484068025.356945
-0.893359,0.682151,-1.628097,-0.107572,0.779369,-0.616361,0.033348,484068025.372383
-0.666290,0.088854,-0.938383,-0.122289,0.775067,-0.618443,0.042955,484068025.372791
-0.473179,-0.361859,-0.598165,-0.137618,0.771620,-0.618710,0.053486,484068025.388110
-0.397384,-0.601468,-0.447010,-0.152846,0.768798,-0.617678,0.063725,484068025.403820
-0.391493,-0.708133,-0.441744,-0.167802,0.765976,-0.616368,0.072207,484068025.404213
-0.529569,-0.599451,-0.509475,-0.181904,0.762434,-0.616171,0.077060,484068025.420089
-0.667655,-0.300588,-0.596935,-0.194572,0.757438,-0.618429,0.077300,484068025.435219
-0.685375,-0.029092,-0.563974,-0.203451,0.750830,-0.624271,0.071749,484068025.435576
-0.693282,0.115032,-0.571663,-0.207391,0.742059,-0.634539,0.060811,484068025.450871
-0.468794,0.137338,-0.663239,-0.207482,0.730874,-0.648479,0.047436,484068025.466485
-0.326004,0.057030,-0.665795,-0.206201,0.717797,-0.664100,0.034924,484068025.466702
-0.252481,-0.055608,-0.653668,-0.205640,0.704009,-0.679273,0.025927,484068025.482415
-0.217386,-0.149723,-0.545865,-0.207653,0.690363,-0.692698,0.021198,484068025.498299
-0.118721,-0.203588,-0.295444,-0.212115,0.678012,-0.703508,0.019554,484068025.498694
-0.019365,-0.120541,-0.046324,-0.217026,0.668570,-0.711043,0.018229,484068025.513847
0.071991,-0.011617,0.047429,-0.220612,0.662621,-0.715573,0.014767,484068025.529887
0.200714,-0.005436,0.036187,-0.221973,0.659701,-0.717935,0.009574,484068025.530612
0.401197,-0.129185,-0.005919,-0.220601,0.658828,-0.719208,0.004630,484068025.545307
0.619173,-0.279952,-0.095175,-0.216118,0.659135,-0.720297,0.002416,484068025.561777
0.776031,-0.386175,-0.237526,-0.209159,0.659702,-0.721814,0.005441,484068025.562196
0.520318,0.002612,-0.655003,-0.205254,0.656391,-0.725756,0.017313,484068025.576872
0.409258,0.382173,-0.024548,-0.209473,0.645982,-0.733089,0.037518,484068025.592666
0.453864,0.474939,0.294821,-0.216339,0.633247,-0.740846,0.057819,484068025.593050
0.493698,0.387133,0.412721,-0.223029,0.621524,-0.747267,0.074545,484068025.609480
0.493548,0.313202,0.438588,-0.228688,0.611630,-0.752399,0.086639,484068025.623967
0.485491,0.268331,0.374249,-0.233931,0.603155,-0.756657,0.094608,484068025.624339
0.481721,0.168528,0.322609,-0.239347,0.595205,-0.760588,0.099749,484068025.639711
0.511895,0.016442,0.284145,-0.244402,0.587264,-0.764569,0.104034,484068025.655549
0.436795,-0.045912,0.254038,-0.249075,0.578922,-0.768742,0.108843,484068025.655943
0.338713,-0.043790,0.263892,-0.254161,0.569955,-0.772987,0.114208,484068025.671254
0.274195,-0.007460,0.304710,-0.259886,0.560604,-0.777108,0.119524,484068025.687079
0.230916,0.066677,0.355344,-0.265915,0.551355,-0.780950,0.124150,484068025.687469
0.194283,0.130197,0.387136,-0.271804,0.542535,-0.784513,0.127736,484068025.702901
0.166334,0.101477,0.337701,-0.277820,0.533642,-0.787947,0.131084,484068025.718550
0.120404,0.148030,0.384789,-0.285312,0.523611,-0.791159,0.135999,484068025.718958
0.057969,0.312340,0.637964,-0.295730,0.513084,-0.793002,0.142960,484068025.734140
0.041104,0.498319,0.932299,-0.308589,0.505178,-0.791888,0.149936,484068025.749896
0.125846,0.563614,0.977795,-0.320059,0.502424,-0.788292,0.154038,484068025.750258
0.206899,0.500328,0.772693,-0.327238,0.503671,-0.784379,0.154855,484068025.765268
0.300949,0.435858,0.549382,-0.330361,0.506343,-0.781673,0.153182,484068025.781786
0.422908,0.393492,0.513459,-0.328960,0.510585,-0.780341,0.148851,484068025.782173
0.513405,0.348775,0.421027,-0.323812,0.516025,-0.780087,0.142577,484068025.797052
0.554285,0.381358,0.205896,-0.318085,0.520542,-0.780399,0.137242,484068025.814159
0.681596,0.476243,0.321885,-0.313049,0.523758,-0.780673,0.135011,484068025.814572
0.661605,0.643748,0.511737,-0.308933,0.527701,-0.779541,0.135679,484068025.829507
0.583684,0.756645,0.664463,-0.308977,0.533920,-0.774507,0.140006,484068025.844404
0.490779,0.545158,0.924536,-0.317284,0.542109,-0.763631,0.149384,484068025.844904
0.452365,0.154327,1.319388,-0.333075,0.552376,-0.746666,0.162578,484068025.859855
0.804064,-0.059408,1.374371,-0.346189,0.565730,-0.727422,0.175953,484068025.876148
0.720136,0.159210,1.292377,-0.348364,0.581259,-0.711224,0.186925,484068025.877339
0.302565,0.390002,1.336474,-0.340102,0.599719,-0.698371,0.192211,484068025.891584
0.083552,0.559714,1.082929,-0.318953,0.622941,-0.689381,0.186998,484068025.906667
0.021869,0.822137,0.241653,-0.286289,0.649139,-0.684079,0.169391,484068025.906949
-0.014169,1.068424,-1.106535,-0.252474,0.672703,-0.680005,0.146014,484068025.922260
-0.149505,1.214786,-0.990418,-0.226228,0.690622,-0.675476,0.124879,484068025.938011
-0.153106,1.216134,-1.016480,-0.206102,0.706180,-0.669394,0.103652,484068025.938277
-0.848444,1.490476,-1.023428,-0.193390,0.719346,-0.662258,0.080972,484068025.954517
-0.828365,1.154116,-1.235833,-0.189985,0.728746,-0.655342,0.057977,484068025.970199
-0.533157,0.665530,-1.385019,-0.195636,0.733684,-0.649412,0.041215,484068025.971778
-0.411488,0.363689,-1.242088,-0.210306,0.735643,-0.642731,0.038698,484068025.985715
-0.402931,0.140247,-0.880999,-0.233008,0.736646,-0.632676,0.052737,484068026.001954
-0.382135,-0.178091,-0.269861,-0.258389,0.736836,-0.619807,0.078402,484068026.003096
-0.281698,-0.542433,0.532571,-0.275403,0.736631,-0.608807,0.104315,484068026.017433
-0.298562,-0.497593,0.764195,-0.280221,0.738222,-0.601542,0.121049,484068026.032882
-0.315150,-0.404189,0.424573,-0.276911,0.743516,-0.595343,0.126776,484068026.034060
-0.199322,-0.358094,0.008979,-0.268092,0.753035,-0.588030,0.123633,484068026.049614
0.043718,-0.246994,-0.943009,-0.256741,0.764505,-0.579807,0.115935,484068026.064545
0.231205,-0.286330,-1.066866,-0.245872,0.775174,-0.571616,0.109122,484068026.064984
0.260479,-0.358720,-0.988321,-0.235648,0.784238,-0.564181,0.105544,484068026.079794
0.220332,-0.499083,-0.840145,-0.227463,0.791525,-0.557178,0.106307,484068026.096284
0.171459,-0.618286,-0.603676,-0.220647,0.798005,-0.550106,0.109025,484068026.096692
0.117010,-0.644862,-0.487982,-0.212242,0.804783,-0.543471,0.109167,484068026.112225
-0.003261,-0.668066,-0.641286,-0.201934,0.811211,-0.538570,0.105369,484068026.127844
-0.106049,-0.712147,-0.822808,-0.191087,0.816474,-0.535818,0.098762,484068026.129003
-0.178249,-0.778977,-0.901020,-0.180365,0.820579,-0.534707,0.090592,484068026.143388
-0.237998,-0.822052,-0.884514,-0.169406,0.823918,-0.534638,0.081383,484068026.158798
-0.341477,-0.813880,-0.856602,-0.157968,0.826421,-0.535711,0.071326,484068026.159224
-0.418178,-0.832414,-0.870500,-0.145736,0.827758,-0.538475,0.060192,484068026.174725
-0.382312,-0.859234,-0.884317,-0.132290,0.827769,-0.543123,0.048118,484068026.190616
-0.339581,-0.836780,-0.840352,-0.117955,0.826445,-0.549394,0.035235,484068026.191204
-0.273585,-0.733734,-0.852988,-0.103759,0.824146,-0.556383,0.021333,484068026.205956
-0.177160,-0.642350,-0.921209,-0.091278,0.820514,-0.564243,0.007420,484068026.221831
-0.112154,-0.549387,-0.914460,-0.082142,0.814417,-0.574426,-0.003685,484068026.222316
0.075440,-0.403681,-0.740217,-0.077747,0.805392,-0.587570,-0.007829,484068026.237623
0.471267,0.072944,-0.264691,-0.081918,0.794114,-0.602203,0.004900,484068026.253975
0.467642,1.104683,1.575146,-0.104633,0.786904,-0.606342,0.046715,484068026.254528
0.068962,2.741370,6.660367,-0.120813,0.789575,-0.596671,0.077194,484068026.268903
-0.406054,3.169379,3.466938,-0.113740,0.792603,-0.595026,0.069189,484068026.283980
0.180194,0.668685,0.252451,-0.106031,0.793574,-0.596088,0.060646,484068026.284205
0.288342,-0.112672,-0.013097,-0.101108,0.793567,-0.597166,0.058493,484068026.300265
0.252190,-0.577684,0.050820,-0.097274,0.792643,-0.598848,0.060299,484068026.316875
-0.028692,-0.834324,0.392617,-0.093033,0.791057,-0.601528,0.061141,484068026.317092
-0.355690,-0.953026,0.178976,-0.088049,0.789949,-0.604054,0.057849,484068026.332876
-0.581197,-0.692242,-0.408497,-0.085171,0.788508,-0.606712,0.053859,484068026.349407
-0.644973,-0.321059,-1.004735,-0.086453,0.784863,-0.611414,0.051852,484068026.349631
-0.689649,-0.047184,-1.282336,-0.093224,0.778599,-0.618352,0.052282,484068026.364503
-0.662196,0.241667,-1.411514,-0.105032,0.770705,-0.626112,0.054449,484068026.379911
-0.681764,0.631281,-1.532542,-0.121878,0.761712,-0.633595,0.059141,484068026.380338
-0.747058,0.978620,-1.406343,-0.141955,0.751437,-0.641036,0.065300,484068026.395315
-0.746197,1.153986,-0.958755,-0.162598,0.740797,-0.647694,0.072622,484068026.410881
0.168448,0.578672,0.184710,-0.182293,0.729587,-0.653826,0.083571,484068026.411694
0.116952,-0.066093,-0.034363,-0.203005,0.718121,-0.657356,0.104759,484068026.426416
-0.244963,-0.230877,0.133689,-0.219458,0.707834,-0.659523,0.125849,484068026.442648
-0.427343,-0.385536,0.435408,-0.229242,0.698929,-0.663031,0.139053,484068026.443066
-0.539600,-0.278222,0.121383,-0.232146,0.691033,-0.669272,0.143723,484068026.457629
-0.585408,-0.148480,-0.246590,-0.231007,0.684146,-0.676913,0.142722,484068026.473721
-0.485500,-0.063457,-0.396088,-0.228731,0.678253,-0.684336,0.139069,484068026.474271
-0.429439,-0.071727,-0.447745,-0.226989,0.672845,-0.691068,0.134836,484068026.489359
-0.447102,-0.065159,-0.419672,-0.227274,0.667862,-0.696601,0.130589,484068026.505267
-0.418173,-0.009580,-0.430465,-0.230502,0.663275,-0.700575,0.127005,484068026.505636
-0.304164,0.021837,-0.387881,-0.235820,0.659440,-0.702875,0.124478,484068026.520695
-0.067486,-0.013471,-0.218220,-0.240923,0.656653,-0.704137,0.122287,484068026.536535
-0.000811,-0.029328,-0.211534,-0.244242,0.654790,-0.705250,0.119238,484068026.536896
0.085187,-0.107214,-0.197832,-0.245700,0.653369,-0.706712,0.115315,484068026.553134
0.198287,-0.229848,-0.141277,-0.245523,0.652423,-0.708294,0.111278,484068026.567855
0.328393,-0.324365,-0.148579,-0.243854,0.652087,-0.709657,0.108187,484068026.568257
0.414599,-0.359313,-0.226787,-0.241390,0.652164,-0.710500,0.107717,484068026.583559
0.365638,-0.272176,-0.288584,-0.239408,0.652110,-0.710784,0.110557,484068026.599388
0.232289,-0.130758,-0.295470,-0.239338,0.651412,-0.710638,0.115642,484068026.599936
0.242088,0.005820,-0.341473,-0.242403,0.649226,-0.710496,0.122235,484068026.615179
0.321577,0.121314,-0.308366,-0.247806,0.644846,-0.711317,0.129589,484068026.630941
0.429222,0.205441,-0.152682,-0.253080,0.638824,-0.713705,0.135938,484068026.631324
0.425852,0.147689,0.013024,-0.256724,0.631883,-0.717757,0.140148,484068026.646572
0.383274,0.090591,0.004578,-0.259138,0.623798,-0.723534,0.142206,484068026.662413
0.371122,-0.004476,0.025876,-0.260998,0.614353,-0.730585,0.143858,484068026.662774
0.301993,-0.049631,0.075134,-0.262647,0.603748,-0.738338,0.146161,484068026.678147
0.237499,-0.019662,0.133057,-0.264842,0.592228,-0.746219,0.149270,484068026.693818
0.201128,0.079233,0.233507,-0.267882,0.580371,-0.753727,0.152656,484068026.694173
0.194739,0.118054,0.316279,-0.271370,0.569020,-0.760527,0.155476,484068026.709559
0.207883,0.072993,0.300937,-0.275294,0.558206,-0.766609,0.157889,484068026.725767
0.219946,0.012496,0.205929,-0.280694,0.546646,-0.772165,0.161709,484068026.726138
0.228758,0.024311,0.136683,-0.288871,0.532819,-0.777317,0.168629,484068026.741031
0.224830,0.152031,0.263563,-0.299516,0.517373,-0.781770,0.177346,484068026.756792
0.252396,0.331197,0.447683,-0.311284,0.502413,-0.784927,0.185939,484068026.757289
0.374961,0.545539,0.665032,-0.324796,0.489501,-0.785512,0.194594,484068026.772695
0.441874,0.488335,0.835674,-0.341283,0.480030,-0.782078,0.203593,484068026.788307
0.494177,0.370829,0.808622,-0.358038,0.475102,-0.775649,0.210845,484068026.788692
0.534060,0.264914,0.651282,-0.371937,0.472958,-0.768992,0.215926,484068026.803870
0.596723,0.213053,0.746933,-0.378280,0.471664,-0.766133,0.217892,484068026.819754
0.582132,0.190226,0.695141,-0.376095,0.472337,-0.767338,0.215969,484068026.820149
0.512846,0.234024,0.524288,-0.371301,0.474582,-0.769023,0.213333,484068026.835497
0.443367,0.319868,0.494399,-0.366839,0.477583,-0.769713,0.211862,484068026.851562
0.398980,0.387383,0.524223,-0.363404,0.481490,-0.769068,0.211279,484068026.851981
0.388531,0.415708,0.535233,-0.362502,0.486262,-0.766199,0.212321,484068026.866700
0.374174,0.438842,0.611428,-0.366640,0.492181,-0.759271,0.216426,484068026.884267
0.363010,0.391347,1.129014,-0.377124,0.499897,-0.746773,0.224077,484068026.884494
0.435329,0.242556,1.477750,-0.390021,0.509320,-0.730712,0.233530,484068026.899019
0.610334,0.176797,1.332395,-0.400469,0.521045,-0.714014,0.241498,484068026.915222
0.706953,0.184684,0.957905,-0.408503,0.535791,-0.695720,0.249052,484068026.915439
0.665642,0.209964,0.849824,-0.409904,0.554310,-0.677806,0.255537,484068026.931245
0.497483,0.403193,0.728664,-0.398463,0.578347,-0.664603,0.255041,484068026.947733
0.360214,0.698841,0.478247,-0.372698,0.607966,-0.658146,0.241489,484068026.948116
0.426813,0.807573,-0.615071,-0.337471,0.638931,-0.656429,0.216753,484068026.961430
0.417222,0.963880,-1.012604,-0.300064,0.666909,-0.655478,0.188529,484068026.977217
0.100160,1.343400,-1.149479,-0.267169,0.689602,-0.653801,0.160044,484068026.977807
-0.321360,1.696031,-1.239798,-0.243244,0.706136,-0.651709,0.132211,484068026.993210
-0.660493,1.798739,-1.257355,-0.230581,0.717109,-0.649115,0.105998,484068027.008472
-0.523748,0.913750,-1.599924,-0.230469,0.722348,-0.646010,0.088140,484068027.008876
-0.364992,0.454827,-1.318094,-0.240893,0.724178,-0.640739,0.083608,484068027.025209
-0.304386,0.096466,-1.035450,-0.257926,0.724736,-0.632304,0.091781,484068027.040139
-0.306002,-0.169421,-0.726416,-0.278084,0.723930,-0.621607,0.110449,484068027.040677
-0.334892,-0.434534,-0.212935,-0.298871,0.720277,-0.610752,0.137328,484068027.055862
-0.261470,-0.611611,0.583681,-0.314425,0.715184,-0.601962,0.165200,484068027.071804
-0.182772,-0.488362,1.063497,-0.320539,0.713170,-0.595610,0.184099,484068027.072215
-0.173061,-0.330288,0.788634,-0.318763,0.716618,-0.590071,0.191480,484068027.086984
-0.132775,-0.244791,0.306743,-0.311527,0.725411,-0.583706,0.189783,484068027.102594
-0.143398,-0.095568,-0.024660,-0.299583,0.738666,-0.576655,0.179142,484068027.103195
-0.006215,0.017215,-0.634933,-0.285227,0.752111,-0.570684,0.165210,484068027.118631
0.125966,-0.137931,-1.107547,-0.272345,0.763401,-0.564608,0.155770,484068027.134405
0.029252,-0.267447,-0.919837,-0.263255,0.772163,-0.557812,0.152669,484068027.134838
-0.096778,-0.384741,-0.734131,-0.256375,0.779338,-0.551289,0.151609,484068027.150056
-0.157833,-0.499652,-0.588483,-0.249519,0.786080,-0.545709,0.148391,484068027.165992
-0.217251,-0.544850,-0.593738,-0.241166,0.792867,-0.541426,0.141627,484068027.166382
-0.282809,-0.580898,-0.676362,-0.231242,0.799271,-0.538733,0.132136,484068027.181569
-0.333684,-0.588867,-0.673770,-0.220101,0.805258,-0.537125,0.120874,484068027.197516
-0.405292,-0.593892,-0.692470,-0.208014,0.810814,-0.536379,0.107744,484068027.198010
-0.429445,-0.623906,-0.782869,-0.195414,0.815517,-0.536653,0.093531,484068027.213498
-0.447365,-0.639085,-0.850601,-0.182768,0.819031,-0.538051,0.079281,484068027.229155
-0.448950,-0.687578,-0.945438,-0.170810,0.820880,-0.540873,0.066608,484068027.229849
-0.407925,-0.759128,-0.970963,-0.159974,0.820841,-0.545410,0.056177,484068027.244530
-0.366298,-0.764115,-0.876797,-0.150776,0.819033,-0.551479,0.048199,484068027.260499
-0.352000,-0.744817,-0.838605,-0.144638,0.815452,-0.558740,0.043919,484068027.260929
-0.298561,-0.641132,-0.742170,-0.142553,0.809628,-0.567663,0.044055,484068027.276015
-0.190541,-0.384777,-0.406352,-0.142910,0.801228,-0.579146,0.046911,484068027.291875
-0.025526,-0.043876,-0.007877,-0.144619,0.790699,-0.592552,0.052558,484068027.292302
0.260267,0.421173,0.584181,-0.149893,0.779574,-0.604483,0.066307,484068027.307650
0.432143,1.280315,2.810033,-0.164167,0.774104,-0.604042,0.094582,484068027.323749
0.376046,2.287704,3.787573,-0.168853,0.774140,-0.599830,0.111353,484068027.324425
0.102163,2.372569,1.961901,-0.161511,0.775303,-0.600703,0.109429,484068027.338814
0.098882,2.372331,1.962513,-0.154377,0.776558,-0.601569,0.106018,484068027.354918
0.369919,0.081707,0.278406,-0.150277,0.778243,-0.600652,0.104749,484068027.355478
0.230759,-0.200822,0.083766,-0.149026,0.779409,-0.599352,0.105309,484068027.370138
-0.103986,-0.208532,0.069054,-0.149865,0.778930,-0.599400,0.107369,484068027.385995
-0.361380,-0.149994,0.053110,-0.152244,0.776840,-0.601097,0.109654,484068027.386382
-0.449520,-0.153365,-0.107816,-0.154519,0.773775,-0.604300,0.110537,484068027.401656
-0.495975,-0.011155,-0.535724,-0.156333,0.769788,-0.608926,0.110435,484068027.417706
-0.404444,0.219296,-1.018225,-0.161784,0.764641,-0.613408,0.113489,484068027.418072
-0.320808,0.400325,-1.304696,-0.173925,0.758012,-0.616593,0.122398,484068027.433632
-0.345304,0.466667,-1.086306,-0.189683,0.749518,-0.619993,0.133612,484068027.449025
-0.306068,0.298738,-0.683837,-0.206139,0.740243,-0.623161,0.145660,484068027.449548
-0.238136,-0.013549,-0.467025,-0.220867,0.732101,-0.624853,0.157493,484068027.464832
-0.294529,-0.218962,-0.431070,-0.232750,0.725244,-0.625972,0.167356,484068027.480882
-0.415423,-0.372508,-0.317294,-0.242123,0.719075,-0.627828,0.173608,484068027.481348
-0.475309,-0.297769,-0.335572,-0.249530,0.713058,-0.631159,0.175845,484068027.496861
-0.522339,-0.094652,-0.387411,-0.255828,0.706615,-0.636162,0.174770,484068027.511196
-0.567996,0.123620,-0.430602,-0.261312,0.699420,-0.642806,0.171256,484068027.511471
-0.586994,0.240881,-0.442213,-0.266077,0.691475,-0.650743,0.166132,484068027.527665
-0.558784,0.233388,-0.430090,-0.270183,0.683232,-0.659094,0.160590,484068027.542739
-0.487231,0.127262,-0.382536,-0.273896,0.675572,-0.666580,0.155739,484068027.543024
-0.395954,-0.029492,-0.346070,-0.277901,0.669159,-0.672187,0.152195,484068027.558460
-0.324318,-0.154743,-0.312877,-0.282416,0.664026,-0.675897,0.149917,484068027.575757
-0.274745,-0.238494,-0.275882,-0.286946,0.659705,-0.678652,0.147928,484068027.576194
-0.235308,-0.284944,-0.262151,-0.290681,0.655502,-0.681694,0.145310,484068027.590690
-0.134107,-0.272567,-0.227050,-0.293153,0.650908,-0.685755,0.141842,484068027.606535
-0.071764,-0.229421,-0.186343,-0.294229,0.645738,-0.690976,0.137854,484068027.606907
-0.010010,-0.168948,-0.134389,-0.293937,0.640058,-0.697211,0.133507,484068027.622253
0.054053,-0.111421,-0.077865,-0.292410,0.634232,-0.704023,0.128829,484068027.638103
0.143736,-0.044818,-0.016978,-0.289699,0.628987,-0.710685,0.124000,484068027.638507
0.273603,0.025550,0.043504,-0.285567,0.625654,-0.716082,0.119309,484068027.653828
0.418207,0.039611,0.047219,-0.279663,0.625294,-0.719338,0.115539,484068027.670091
0.495600,0.058107,-0.241207,-0.274694,0.626229,-0.720272,0.116574,484068027.670559
0.453957,0.199870,-0.486634,-0.276899,0.624441,-0.719114,0.127577,484068027.685141
0.380356,0.317239,-0.234126,-0.284302,0.620021,-0.716935,0.144054,484068027.700898
0.348447,0.321609,-0.063425,-0.294234,0.613525,-0.714896,0.161047,484068027.701264
0.363322,0.274270,-0.037789,-0.306138,0.604431,-0.713893,0.176917,484068027.716560
0.559973,0.071291,0.147756,-0.318745,0.592998,-0.714383,0.190819,484068027.732277
0.608742,-0.060315,0.317966,-0.329121,0.581513,-0.716148,0.201628,484068027.732679
0.524629,-0.115585,0.288027,-0.335931,0.571765,-0.718571,0.209500,484068027.748404
0.329604,-0.036218,0.154098,-0.340883,0.562970,-0.720819,0.217449,484068027.764837
0.172216,0.068881,0.155080,-0.346944,0.553555,-0.722256,0.227053,484068027.765224
0.086672,0.098147,0.251476,-0.355548,0.543867,-0.721925,0.237947,484068027.779511
0.028152,0.087038,0.356781,-0.366648,0.535070,-0.719152,0.249178,484068027.795811
0.011126,0.059658,0.417430,-0.379289,0.527729,-0.714248,0.259793,484068027.796400
0.040824,0.011006,0.422091,-0.392199,0.521579,-0.708185,0.269463,484068027.811023
0.128896,-0.058945,0.397434,-0.404674,0.515420,-0.702206,0.278367,484068027.826768
0.325805,-0.154685,0.459317,-0.415325,0.509410,-0.697124,0.286400,484068027.827167
0.764274,-0.411498,0.634198,-0.422864,0.505272,-0.692816,0.293073,484068027.842731
0.862176,-0.417669,0.651039,-0.428681,0.503859,-0.687563,0.299359,484068027.858215
0.832158,-0.320272,0.683012,-0.434805,0.505744,-0.679691,0.305267,484068027.858595
0.579556,-0.166902,0.539929,-0.438854,0.512245,-0.671094,0.307644,484068027.874336
0.318368,0.048136,0.204499,-0.440120,0.521529,-0.663840,0.305972,484068027.889790
0.166286,0.333890,0.068160,-0.439759,0.530865,-0.658260,0.302472,484068027.890190
0.111830,0.576448,0.064292,-0.437070,0.540595,-0.654637,0.296946,484068027.905413
0.085223,0.689376,-0.002731,-0.431407,0.550878,-0.653203,0.289392,484068027.921398
0.025070,0.708233,-0.154621,-0.423359,0.560822,-0.653411,0.281603,484068027.921970
-0.016826,0.657133,-0.284689,-0.414503,0.569393,-0.654008,0.276140,484068027.937236
-0.005547,0.589762,-0.314866,-0.406475,0.576130,-0.653749,0.274710,484068027.953212
-0.064038,0.558894,-0.238698,-0.401738,0.581048,-0.651017,0.277788,484068027.953665
-0.294602,0.397617,-0.197422,-0.402764,0.583935,-0.643221,0.288216,484068027.967613
-0.758894,0.415239,0.022294,-0.410016,0.583962,-0.630109,0.306331,484068027.983408
-1.251234,0.503495,0.595622,-0.420466,0.580974,-0.614496,0.328742,484068027.983689
-1.739418,0.551290,1.535873,-0.428605,0.578875,-0.600131,0.347914,484068027.999077
-2.013109,0.555694,1.730678,-0.432197,0.583012,-0.588776,0.355873,484068028.016063
-1.886466,0.514502,1.106199,-0.433632,0.593125,-0.579957,0.351874,484068028.016599
-1.648416,0.538126,0.228063,-0.436123,0.604607,-0.572615,0.341114,484068028.031601
-1.479437,0.484300,-0.715920,-0.443518,0.611628,-0.565217,0.331258,484068028.048752
-1.271114,0.363331,-0.994774,-0.457008,0.612355,-0.556734,0.325901,484068028.049322
-0.938087,0.174958,-0.938800,-0.474615,0.608798,-0.546265,0.325114,484068028.062676
-0.405733,0.017989,-1.078408,-0.492846,0.602554,-0.534473,0.329196,484068028.078436
-0.353077,-0.048072,-1.022163,-0.509950,0.594266,-0.522078,0.337984,484068028.079196
-0.233320,-0.010861,-0.886371,-0.525866,0.584407,-0.508922,0.350616,484068028.094780
-0.195751,-0.019591,-0.724888,-0.540412,0.573004,-0.496188,0.365266,484068028.109982
-0.095369,-0.070461,-0.527462,-0.539959,0.541075,-0.511816,0.392079,484068028.110509
-0.034600,-0.151598,-0.387039,-0.550153,0.530076,-0.502996,0.404161,484068028.125679
0.078651,-0.282979,-0.401313,-0.558373,0.519882,-0.495502,0.415234,484068028.141477
0.202009,-0.356748,-0.392984,-0.565912,0.509717,-0.487281,0.427189,484068028.141879
0.179696,-0.414404,-0.327930,-0.573502,0.499611,-0.478123,0.439183,484068028.157485
0.145951,-0.442255,-0.270929,-0.581448,0.489471,-0.468350,0.450537,484068028.172630
0.133459,-0.508934,-0.063077,-0.588907,0.480013,-0.459328,0.460211,484068028.173029
0.087074,-0.567367,0.013030,-0.594772,0.471354,-0.452844,0.467979,484068028.188556
0.088982,-0.683580,-0.212026,-0.598640,0.463003,-0.449647,0.474422,484068028.204384
0.089328,-0.702243,-0.294103,-0.601063,0.454428,-0.448713,0.480494,484068028.204806
0.105314,-0.734712,-0.352460,-0.603146,0.445551,-0.448948,0.485948,484068028.220139
0.109941,-0.783747,-0.393565,-0.605889,0.436330,-0.449339,0.490520,484068028.235739
0.085457,-0.829291,-0.428731,-0.609508,0.426739,-0.449016,0.494750,484068028.236112
0.105243,-0.812385,-0.415743,-0.612983,0.416663,-0.448556,0.499442,484068028.251757
0.145845,-0.755067,-0.336132,-0.614927,0.406839,-0.449354,0.504408,484068028.267908
0.126425,-0.625751,-0.202305,-0.614407,0.398467,-0.453108,0.508351,484068028.268300
0.077054,-0.433542,-0.114635,-0.611317,0.391922,-0.460657,0.510376,484068028.282953
0.062827,-0.217920,-0.076157,-0.605887,0.387306,-0.471685,0.510301,484068028.298849
0.074791,-0.017375,-0.020293,-0.598056,0.384733,-0.486012,0.508037,484068028.299383
0.064499,0.441292,0.179462,-0.588100,0.384532,-0.503186,0.503067,484068028.316093
0.091688,1.094553,0.212815,-0.576444,0.387146,-0.522469,0.494830,484068028.331691
0.104324,2.043067,-1.023963,-0.564086,0.390354,-0.541525,0.485985,484068028.332146
0.130159,2.752011,-1.332130,-0.565850,0.360720,-0.538025,0.510121,484068028.346105
0.148324,2.759614,-1.307343,-0.589103,0.301446,-0.503908,0.555126,484068028.362249
1.668519,0.848282,4.940433,-0.606079,0.267171,-0.474951,0.579405,484068028.362697
1.045271,-0.019148,3.695054,-0.602121,0.281899,-0.478247,0.573815,484068028.378012
0.681200,-0.275160,1.230253,-0.596353,0.312196,-0.491761,0.552330,484068028.393341
0.481201,-0.256162,-0.057147,-0.598566,0.337191,-0.499601,0.527655,484068028.393872
0.639582,-0.135277,-0.804273,-0.600833,0.357051,-0.504498,0.506947,484068028.408849
0.730326,-0.338982,-1.098309,-0.595462,0.373725,-0.512406,0.493148,484068028.424654
0.317107,-0.023670,-0.562559,-0.583689,0.390718,-0.524136,0.481589,484068028.425050
0.166767,0.101744,-0.586561,-0.569806,0.407473,-0.537463,0.469488,484068028.440454
0.106597,0.151228,-0.582463,-0.556666,0.422463,-0.550406,0.456838,484068028.455991
0.066158,0.055238,-0.818024,-0.545952,0.434440,-0.561277,0.445159,484068028.456355
0.042666,0.013034,-0.955794,-0.539079,0.441428,-0.568582,0.437320,484068028.471670
-0.053525,0.024962,-0.779544,-0.536135,0.443189,-0.572467,0.434078,484068028.487534
-0.097482,-0.023887,-0.429182,-0.535194,0.441792,-0.574984,0.433337,484068028.487921
-0.073288,-0.145532,-0.180324,-0.534323,0.439366,-0.577727,0.433229,484068028.503232
-0.064077,-0.217907,-0.058365,-0.532837,0.436625,-0.581272,0.433089,484068028.519325
-0.045809,-0.225339,-0.007561,-0.530333,0.433383,-0.586013,0.433029,484068028.519850
-0.026296,-0.228512,-0.038558,-0.525093,0.428731,-0.593087,0.434412,484068028.534623
-0.027874,-0.216362,-0.054218,-0.514487,0.421802,-0.603887,0.438983,484068028.550447
-0.140297,0.111773,0.293819,-0.500235,0.414647,-0.616986,0.444028,484068028.550858
-0.178386,0.138781,0.433485,-0.485602,0.408919,-0.630271,0.446916,484068028.566656
-0.211168,0.104606,0.667382,-0.473220,0.404232,-0.642250,0.447409,484068028.581964
-0.185797,0.102359,0.972504,-0.465171,0.400310,-0.651801,0.445560,484068028.582364
-0.043287,0.083500,1.085806,-0.462169,0.398232,-0.658569,0.440565,484068028.597557
0.181485,0.075516,0.949855,-0.462229,0.399107,-0.663275,0.432578,484068028.615408
0.381106,0.079985,0.718635,-0.462712,0.402834,-0.667117,0.422585,484068028.615632
0.525492,0.097078,0.467103,-0.461595,0.408520,-0.671204,0.411736,484068028.630980
0.613879,0.080116,0.242391,-0.458002,0.415188,-0.675964,0.401157,484068028.644967
0.636552,0.077906,-0.088164,-0.453145,0.420974,-0.680659,0.392610,484068028.645381
0.587314,0.068097,-0.382072,-0.449509,0.423907,-0.684327,0.387223,484068028.661087
0.439745,0.042332,-0.778082,-0.449487,0.423272,-0.685876,0.385197,484068028.676314
0.379730,0.025284,-1.007076,-0.454174,0.418452,-0.684463,0.387471,484068028.676687
0.343559,0.114865,-0.717543,-0.462125,0.409860,-0.680813,0.393634,484068028.692123
0.320859,0.262029,-0.405833,-0.469222,0.400697,-0.677267,0.400727,484068028.707776
0.250216,0.468630,-0.166520,-0.471466,0.392226,-0.676591,0.407558,484068028.708150
0.115063,0.654776,0.279545,-0.464823,0.385011,-0.682617,0.411994,484068028.723528
0.091342,0.744291,0.572138,-0.448421,0.380746,-0.695928,0.411867,484068028.740079
0.169180,0.742709,0.735722,-0.425668,0.378507,-0.713065,0.408751,484068028.740627
0.323789,0.801989,1.491738,-0.404219,0.377748,-0.728293,0.404354,484068028.755023
0.566326,0.803293,2.211669,-0.394013,0.380630,-0.735282,0.399042,484068028.770690
0.797416,0.768986,1.721629,-0.395260,0.385433,-0.734037,0.395475,484068028.771067
0.841807,0.733614,1.077077,-0.401593,0.391199,-0.727975,0.394638,484068028.786561
0.660463,0.600699,0.948018,-0.407316,0.398879,-0.720657,0.394517,484068028.802239
0.609694,0.478675,0.886911,-0.411620,0.409045,-0.712961,0.393620,484068028.802632
0.562515,0.305098,0.765138,-0.415400,0.421445,-0.704068,0.392574,484068028.818407
0.443103,0.185627,0.604877,-0.419575,0.434819,-0.693309,0.392699,484068028.833719
0.198176,0.224195,0.341230,-0.424787,0.448198,-0.680632,0.394226,484068028.834083
-0.058649,0.340856,0.111921,-0.430336,0.460921,-0.667103,0.396657,484068028.849375
-0.300860,0.446809,0.061277,-0.434331,0.472900,-0.654590,0.399040,484068028.865156
-0.527727,0.520415,0.192648,-0.435148,0.484758,-0.644754,0.399935,484068028.865553
-0.753444,0.655278,0.341258,-0.432954,0.496440,-0.637830,0.399088,484068028.881146
-0.937477,0.738632,0.491856,-0.430424,0.508846,-0.631739,0.395874,484068028.896407
-1.107047,0.729021,0.397884,-0.431107,0.521854,-0.624269,0.390004,484068028.896857
-1.151764,0.298425,-0.157310,-0.435841,0.534325,-0.615756,0.381294,484068028.912391
-0.890061,0.239940,-0.397288,-0.442919,0.544598,-0.607467,0.371778,484068028.928694
-0.720869,0.125873,-0.465245,-0.449904,0.551995,-0.600185,0.364233,484068028.929141
-0.505132,0.018335,-0.397033,-0.455472,0.557845,-0.593399,0.359489,484068028.943795
-0.311456,-0.002258,-0.359266,-0.458492,0.564163,-0.586526,0.357060,484068028.959636
-0.145069,0.101995,-0.395732,-0.459376,0.569952,-0.580693,0.356264,484068028.960041
0.339086,0.127453,-0.396132,-0.459111,0.574352,-0.574563,0.359463,484068028.975194
0.448965,0.139329,-0.085229,-0.463057,0.577603,-0.561729,0.369343,484068028.991497
0.142718,0.078225,0.317134,-0.467759,0.583164,-0.546483,0.377462,484068028.991723
-0.045682,-0.041170,0.251320,-0.468825,0.592806,-0.533918,0.379098,484068029.007563
-0.073951,-0.151329,-0.073286,-0.467098,0.604198,-0.523466,0.377820,484068029.022905
-0.212739,-0.273316,-0.285135,-0.464183,0.615808,-0.513625,0.376171,484068029.023554
-0.258161,-0.345870,-0.306028,-0.461342,0.626457,-0.504161,0.374882,484068029.037336
-0.284997,-0.395614,-0.300422,-0.458588,0.636471,-0.495263,0.373251,484068029.053286
-0.333138,-0.436283,-0.254269,-0.455726,0.646192,-0.487067,0.370831,484068029.054414
-0.281890,-0.483001,-0.203651,-0.452326,0.656066,-0.480037,0.366802,484068029.068975
-0.197839,-0.453145,-0.222568,-0.447212,0.667191,-0.474544,0.360090,484068029.086098
-0.144545,-0.414287,-0.296705,-0.440483,0.679112,-0.470420,0.351406,484068029.088238
-0.140939,-0.358846,-0.375902,-0.432598,0.691175,-0.467636,0.341251,484068029.100493
-0.153258,-0.396346,-0.477126,-0.423733,0.702767,-0.466224,0.330461,484068029.116867
-0.163315,-0.462015,-0.571424,-0.413975,0.713687,-0.466025,0.319525,484068029.117291
-0.215245,-0.540695,-0.673230,-0.403970,0.723263,-0.466818,0.309484,484068029.132684
-0.282255,-0.659056,-0.708735,-0.394077,0.731208,-0.468616,0.300728,484068029.147749
-0.281699,-0.678841,-0.650330,-0.384539,0.737668,-0.471334,0.292951,484068029.147965
-0.254663,-0.660347,-0.564260,-0.375216,0.742928,-0.474981,0.285769,484068029.166063
-0.169206,-0.663249,-0.487624,-0.366060,0.747056,-0.479686,0.278942,484068029.180239
-0.130016,-0.695744,-0.396052,-0.357411,0.749680,-0.485307,0.273337,484068029.180675
-0.132013,-0.749273,-0.294588,-0.350069,0.750099,-0.491549,0.270522,484068029.196000
-0.075847,-0.761356,-0.141654,-0.344694,0.747510,-0.498198,0.272421,484068029.211146
0.042023,-0.629367,0.206252,-0.342347,0.741222,-0.504236,0.281309,484068029.211504
0.263606,-0.180700,0.730025,-0.343297,0.731486,-0.508897,0.296816,484068029.226786
0.362130,0.439226,1.761346,-0.345363,0.722132,-0.512063,0.311514,484068029.242580
0.279915,1.105058,2.537040,-0.346490,0.716867,-0.514928,0.317641,484068029.243020
0.123995,1.554106,2.364747,-0.344688,0.716083,-0.519860,0.313308,484068029.258267
-0.156293,0.849352,0.498165,-0.340615,0.716483,-0.526577,0.305534,484068029.274250
-0.124822,0.383966,0.005277,-0.337814,0.715033,-0.532772,0.301271,484068029.274668
-0.181018,0.063276,-0.176328,-0.338909,0.710943,-0.536055,0.303886,484068029.289989
-0.512800,0.163030,-0.050625,-0.344194,0.704214,-0.536168,0.313270,484068029.305961
-0.950921,0.623576,0.566991,-0.354071,0.694795,-0.533276,0.327889,484068029.306502
-1.256350,0.899468,1.160575,-0.367724,0.684430,-0.526777,0.344734,484068029.321587
-1.227271,0.735242,0.327872,-0.380852,0.675130,-0.518851,0.360478,484068029.337743
-1.067427,0.404022,-1.017191,-0.394564,0.665544,-0.509102,0.377074,484068029.338231
-1.073087,0.187134,-1.064719,-0.403787,0.656029,-0.505614,0.388506,484068029.352682
-0.878852,-0.292227,-0.811732,-0.406258,0.647235,-0.511079,0.393496,484068029.368525
-0.659928,-0.613940,-0.921948,-0.406348,0.637840,-0.519921,0.397144,484068029.368939
-0.513219,-0.576829,-0.845989,-0.405961,0.627531,-0.529860,0.400810,484068029.384262
-0.510558,-0.353960,-0.787857,-0.405869,0.615780,-0.540765,0.404547,484068029.399861
-0.573260,-0.127704,-0.875393,-0.407631,0.601756,-0.551489,0.409374,484068029.400070
-0.617112,0.076617,-0.945535,-0.412103,0.584698,-0.561513,0.415936,484068029.415658
-0.461117,0.150598,-0.936013,-0.417882,0.565247,-0.571188,0.423810,484068029.431478
-0.258068,0.075709,-0.869345,-0.421996,0.545821,-0.580391,0.432604,484068029.431853
-0.167720,0.099631,-0.803033,-0.423633,0.526684,-0.589290,0.442580,484068029.447172
-0.118067,0.098487,-0.621538,-0.424537,0.507766,-0.597168,0.453136,484068029.463267
-0.101570,0.042519,-0.379195,-0.426514,0.489717,-0.603325,0.462885,484068029.463643
-0.079746,0.007204,-0.212941,-0.429975,0.472817,-0.607799,0.471323,484068029.478616
-0.099805,0.064027,-0.071195,-0.434628,0.457083,-0.611386,0.477893,484068029.494298
-0.026503,0.246204,0.080292,-0.439841,0.442939,-0.614855,0.481973,484068029.494684
0.065760,0.300081,0.123556,-0.444572,0.430857,-0.618618,0.483766,484068029.510132
0.208767,0.189960,0.201377,-0.448048,0.421425,-0.622269,0.484186,484068029.525830
0.301432,0.008497,0.265503,-0.449628,0.415275,-0.625254,0.484189,484068029.526190
0.346599,-0.125254,0.315641,-0.449319,0.412385,-0.627397,0.484174,484068029.541818
0.376906,-0.117854,-0.078952,-0.450356,0.408489,-0.627002,0.487015,484068029.557547
0.477087,0.031402,-0.089704,-0.457834,0.395907,-0.621554,0.497309,484068029.557978
0.587024,0.122958,0.375306,-0.466220,0.382084,-0.614262,0.509248,484068029.573093
0.672794,0.041047,0.527752,-0.472586,0.372550,-0.606756,0.519342,484068029.588905
0.641553,0.012613,0.417889,-0.476777,0.367119,-0.599867,0.527320,484068029.589285
0.481012,0.159229,0.342950,-0.479585,0.363687,-0.595055,0.532579,484068029.604390
0.430184,0.086112,0.192296,-0.481712,0.360413,-0.592685,0.535519,484068029.620212
0.432866,0.000307,0.153038,-0.483169,0.356289,-0.592560,0.537103,484068029.620577
0.436991,-0.059035,0.149675,-0.483553,0.350858,-0.594465,0.538225,484068029.635976
0.407690,-0.058043,0.208421,-0.482366,0.344730,-0.597863,0.539485,484068029.651673
0.346873,-0.005678,0.274365,-0.479534,0.338402,-0.602634,0.540706,484068029.652030
0.295425,0.093148,0.302434,-0.475506,0.331945,-0.608503,0.541692,484068029.667172
0.260953,0.204904,0.307565,-0.470901,0.324894,-0.615058,0.542586,484068029.683507
0.240210,0.278078,0.304913,-0.466117,0.316874,-0.621637,0.543961,484068029.684054
0.214254,0.284681,0.297299,-0.461419,0.307342,-0.627732,0.546429,484068029.698851
0.191136,0.256393,0.277822,-0.457321,0.295534,-0.632602,0.550755,484068029.714771
0.178754,0.285466,0.320024,-0.454535,0.281346,-0.635750,0.556833,484068029.715169
0.172551,0.336947,0.427127,-0.454629,0.265509,-0.636235,0.563935,484068029.730386
0.130462,0.537360,0.863937,-0.461504,0.248124,-0.632246,0.570713,484068029.746447
0.366428,0.451826,0.955188,-0.474379,0.233068,-0.624763,0.574730,484068029.746670
0.513659,0.337526,0.785351,-0.487814,0.224023,-0.616816,0.575664,484068029.762650
0.611688,0.315126,0.531168,-0.500001,0.218945,-0.609291,0.575175,484068029.778303
0.764368,0.319862,0.479441,-0.509649,0.216213,-0.602700,0.574684,484068029.778709
0.910463,0.360056,0.450556,-0.514674,0.217434,-0.598173,0.574476,484068029.793244
0.978995,0.470027,0.288512,-0.515376,0.221310,-0.595141,0.575514,484068029.808977
1.027640,0.527107,0.215907,-0.514085,0.225029,-0.591855,0.578608,484068029.809571
1.075746,0.498746,0.274480,-0.514131,0.227073,-0.585860,0.583845,484068029.825191
1.018897,0.391809,0.486527,-0.524834,0.223239,-0.570419,0.591047,484068029.840388
1.062438,0.217626,1.460339,-0.540932,0.221171,-0.549164,0.597406,484068029.840932
1.060727,0.142352,1.525779,-0.550052,0.233310,-0.533283,0.598847,484068029.856073
0.934131,0.197641,0.323472,-0.559080,0.252334,-0.515226,0.598581,484068029.872221
0.535471,0.469089,0.133552,-0.567574,0.268580,-0.491663,0.603317,484068029.872647
0.131330,0.780833,0.423086,-0.573077,0.283739,-0.467285,0.610508,484068029.887746
-0.235336,1.004464,0.475000,-0.572980,0.304032,-0.450063,0.613761,484068029.903429
-0.556331,1.311831,0.294235,-0.567018,0.331941,-0.443565,0.609554,484068029.903871
-0.761525,1.681360,0.187947,-0.558930,0.364355,-0.446818,0.595983,484068029.919299
-0.777974,1.677290,0.154507,-0.551173,0.397601,-0.457728,0.573242,484068029.934126
-0.977090,1.999484,-0.085376,-0.542985,0.428628,-0.474186,0.544603,484068029.934765
-1.093894,1.695540,-0.516737,-0.534078,0.452299,-0.492037,0.517770,484068029.950733
-1.209691,1.074736,-0.800121,-0.529235,0.466529,-0.505827,0.496386,484068029.966214
-1.012477,0.262009,-0.685029,-0.533135,0.472640,-0.510405,0.481523,484068029.966454
-0.925651,0.003992,-0.618904,-0.545824,0.472172,-0.505222,0.473161,484068029.983295
-0.823937,-0.223196,-0.556446,-0.564501,0.465956,-0.492760,0.470544,484068029.997734
-0.562382,-0.528084,-0.262206,-0.584183,0.455660,-0.477122,0.472714,484068029.998101
-0.211913,-0.722080,0.045896,-0.598779,0.446878,-0.462635,0.477214,484068030.013382
-0.046447,-0.667815,0.450023,-0.604800,0.448781,-0.452072,0.477958,484068030.029396
-0.245320,-0.437745,0.036955,-0.604118,0.463301,-0.446574,0.470069,484068030.029830
-0.293092,-0.220457,-0.338885,-0.601703,0.483753,-0.443137,0.455595,484068030.045358
-0.164856,-0.135436,-0.852405,-0.599853,0.502644,-0.438878,0.441488,484068030.060738
-0.049432,-0.206743,-1.058419,-0.600057,0.515097,-0.431237,0.434329,484068030.061170
0.040982,-0.371431,-0.801230,-0.601891,0.523319,-0.419665,0.433298,484068030.077514
0.037389,-0.499047,-0.366757,-0.602853,0.532720,-0.407355,0.432249,484068030.093540
-0.154172,-0.439151,-0.553756,-0.601945,0.544432,-0.397380,0.428188,484068030.094072
-0.286386,-0.419327,-0.724725,-0.600453,0.555597,-0.390200,0.422507,484068030.108284
-0.309822,-0.522448,-0.706043,-0.598894,0.565720,-0.386206,0.414889,484068030.122838
-0.317436,-0.596577,-0.874751,-0.596336,0.576097,-0.385161,0.405149,484068030.123072
-0.353073,-0.632266,-0.976400,-0.592409,0.586314,-0.386099,0.395240,484068030.138730
-0.400217,-0.671494,-0.991529,-0.586905,0.596072,-0.388946,0.385955,484068030.154733
-0.440334,-0.740987,-1.064094,-0.580149,0.604682,-0.393629,0.377946,484068030.154986
-0.452525,-0.812409,-1.074097,-0.572536,0.611599,-0.399736,0.371968,484068030.171020
-0.416853,-0.841241,-0.987476,-0.564165,0.616738,-0.407353,0.367988,484068030.186848
-0.306348,-0.849791,-0.788298,-0.555184,0.620342,-0.416552,0.365282,484068030.187694
-0.182785,-0.847370,-0.744214,-0.546366,0.621583,-0.426771,0.364671,484068030.202164
0.104201,-0.820456,-0.910529,-0.538904,0.618520,-0.436133,0.369869,484068030.218151
0.257852,-0.703733,-0.581511,-0.533278,0.610300,-0.443217,0.383024,484068030.218553
0.359034,-0.427631,-0.049062,-0.531210,0.596058,-0.444880,0.405726,484068030.234611
0.691580,0.287784,0.989165,-0.536982,0.572005,-0.433973,0.442862,484068030.250263
0.706121,1.428772,4.068005,-0.550319,0.540708,-0.408402,0.487843,484068030.250482
0.551424,2.371168,5.410826,-0.555443,0.526868,-0.394715,0.508029,484068030.270475
0.702648,2.365304,2.264532,-0.547981,0.530049,-0.402035,0.507083,484068030.282870
0.706903,2.363123,2.275624,-0.539252,0.533757,-0.412809,0.503885,484068030.283169
0.633677,0.683259,0.135378,-0.535957,0.533253,-0.417300,0.504234,484068030.299795
0.406169,0.056467,0.117134,-0.536772,0.530161,-0.415487,0.508110,484068030.312604
-0.006419,-0.303072,-0.036660,-0.538540,0.525999,-0.411296,0.513941,484068030.313035
-0.517038,-0.210591,-0.083599,-0.539241,0.521236,-0.408098,0.520565,484068030.328741
-0.627983,-0.198003,-0.175594,-0.540798,0.514678,-0.403465,0.529018,484068030.343544
-0.891325,-0.094222,-0.577201,-0.545194,0.505275,-0.395777,0.539278,484068030.343806
-1.215682,0.268866,-1.153381,-0.553768,0.491750,-0.386106,0.549950,484068030.359796
-1.433839,0.817257,-1.317476,-0.565083,0.473538,-0.379184,0.559162,484068030.375422
-1.303852,0.956855,-0.999152,-0.575713,0.452251,-0.378243,0.566530,484068030.375803
-0.887475,0.677670,-0.035994,-0.582255,0.432367,-0.383481,0.571821,484068030.391168
-0.548452,0.329590,0.485018,-0.581663,0.418443,-0.395394,0.574662,484068030.407023
-0.505915,-0.165024,0.010454,-0.578552,0.406364,-0.406177,0.578935,484068030.407707
-0.547170,-0.469711,-0.109135,-0.576115,0.394593,-0.412404,0.585074,484068030.422473
-0.658361,-0.500342,-0.122931,-0.575108,0.383693,-0.414551,0.591759,484068030.438088
-0.772487,-0.349676,-0.359555,-0.576365,0.372398,-0.412889,0.598871,484068030.438660
-0.772788,-0.264668,-0.689459,-0.579109,0.358292,-0.409630,0.607011,484068030.454143
-0.730959,-0.243674,-0.685380,-0.581914,0.339876,-0.406724,0.616794,484068030.469772
-0.642353,-0.197018,-0.546988,-0.583655,0.318080,-0.405302,0.627616,484068030.470173
-0.565418,-0.096069,-0.488970,-0.584080,0.294630,-0.405276,0.638588,484068030.485589
-0.466703,-0.008407,-0.390493,-0.583650,0.270507,-0.405604,0.649357,484068030.501234
-0.322645,0.041623,-0.216670,-0.582858,0.247446,-0.405855,0.659036,484068030.501629
-0.208512,0.104900,0.045676,-0.581225,0.228716,-0.407848,0.665978,484068030.516982
-0.119861,0.108996,0.212838,-0.578261,0.217434,-0.413776,0.668675,484068030.534071
0.004518,0.126963,0.233629,-0.573852,0.214275,-0.424021,0.667073,484068030.534473
0.162916,0.132056,0.173483,-0.568539,0.218249,-0.436791,0.662076,484068030.548474
0.421008,0.001765,0.056486,-0.562521,0.228023,-0.449446,0.655419,484068030.564204
0.910484,-0.251335,-0.065816,-0.555308,0.242896,-0.459636,0.649130,484068030.564607
0.928215,-0.242434,-0.127082,-0.547367,0.261761,-0.465165,0.644587,484068030.580093
0.850753,-0.157259,-0.350856,-0.540363,0.281449,-0.463859,0.643140,484068030.595650
0.572734,0.236562,-0.574324,-0.535291,0.297195,-0.454911,0.646679,484068030.596013
0.261156,0.605021,-0.703803,-0.533466,0.302339,-0.439983,0.656064,484068030.611130
0.122835,0.538018,-0.316090,-0.535075,0.295377,-0.423214,0.668833,484068030.627410
0.189521,0.412002,-0.015205,-0.538860,0.279959,-0.408069,0.681713,484068030.627944
0.288652,0.247818,0.215563,-0.543436,0.259806,-0.395824,0.693182,484068030.642842
0.373769,0.105416,0.319749,-0.547478,0.237903,-0.386641,0.702979,484068030.658113
0.448488,0.042750,0.395188,-0.550099,0.216389,-0.380111,0.711394,484068030.658400
0.497753,0.046062,0.450658,-0.551043,0.196654,-0.375506,0.718801,484068030.673737
0.585581,0.046369,0.545729,-0.550314,0.179698,-0.372368,0.725400,484068030.689625
0.558904,0.116670,0.549837,-0.547897,0.166054,-0.370409,0.731459,484068030.689897
0.486739,0.205899,0.405890,-0.543666,0.154712,-0.369508,0.737533,484068030.705458
0.377298,0.203407,0.071164,-0.537271,0.140406,-0.366913,0.746325,484068030.721021
0.299094,0.334681,0.360631,-0.528954,0.119629,-0.361480,0.758439,484068030.721273
0.401532,0.434175,0.650120,-0.520154,0.096868,-0.356398,0.770089,484068030.736712
0.517853,0.465548,0.745134,-0.511863,0.075674,-0.352048,0.779957,484068030.752530
0.570369,0.491975,0.690516,-0.505073,0.055791,-0.346458,0.788515,484068030.752800
0.492061,0.498638,0.575413,-0.503075,0.030444,-0.334539,0.796287,484068030.768091
0.496750,0.512478,0.903804,-0.508969,-0.001154,-0.316181,0.800612,484068030.783676
0.743191,0.417452,1.050973,-0.518460,-0.028061,-0.297473,0.801200,484068030.783912
0.827057,0.308995,0.966717,-0.527979,-0.046167,-0.281125,0.800047,484068030.799585
0.731415,0.318645,0.670510,-0.536774,-0.062573,-0.264217,0.798842,484068030.816020
0.808137,0.307593,1.880117,-0.541265,-0.083588,-0.243737,0.800398,484068030.816233
0.881532,0.278219,3.148793,-0.547047,-0.099477,-0.224534,0.800268,484068030.831637
0.987365,0.233648,2.170300,-0.559101,-0.100538,-0.211586,0.795317,484068030.849182
0.983903,0.204103,0.905041,-0.571976,-0.089383,-0.204018,0.789450,484068030.849431
0.788983,0.162540,0.286153,-0.584578,-0.078232,-0.194324,0.783828,484068030.865697
0.539935,0.161655,-0.055112,-0.599764,-0.082312,-0.171116,0.777321,484068030.880702
0.569923,0.221890,0.320440,-0.616754,-0.093457,-0.137313,0.769432,484068030.881292
0.402798,0.400841,0.649487,-0.633946,-0.099588,-0.102655,0.760037,484068030.894760
0.187403,0.711542,0.849949,-0.650512,-0.093973,-0.074463,0.749972,484068030.910336
-0.163291,1.156243,0.844633,-0.666083,-0.076094,-0.057989,0.739717,484068030.910960
-0.869531,2.143120,0.638076,-0.682085,-0.051976,-0.054057,0.727418,484068030.926005
-1.130697,2.501302,-0.195258,-0.697025,-0.026183,-0.061213,0.713949,484068030.942080
-1.320960,2.241662,-0.434970,-0.702961,-0.004305,-0.071960,0.707566,484068030.942565
-1.343894,1.670162,-0.328108,-0.703910,0.012354,-0.083810,0.705219,484068030.957343
-1.268179,1.026710,-0.292354,-0.705119,0.024185,-0.094277,0.702378,484068030.973196
-1.315413,0.547225,-0.046118,-0.710177,0.027062,-0.096107,0.696907,484068030.973614
-1.272391,0.208607,0.084769,-0.720727,0.018633,-0.085997,0.687611,484068030.989030
-1.091161,-0.085330,-0.063334,-0.732301,0.005144,-0.069599,0.677396,484068031.004701
-0.868338,-0.303207,-0.303696,-0.741128,-0.008275,-0.052776,0.669235,484068031.005115
-0.637521,-0.383539,-0.368376,-0.747429,-0.017370,-0.039331,0.662949,484068031.020571
-0.528488,-0.383824,-0.444441,-0.752892,-0.019971,-0.031982,0.657064,484068031.036160
-0.292362,-0.359551,-0.277191,-0.760483,-0.012840,-0.034789,0.648299,484068031.036599
0.043630,-0.421449,-0.729340,-0.769848,0.001066,-0.044926,0.636644,484068031.051613
0.463335,-0.573439,-1.257272,-0.778430,0.014663,-0.052768,0.625338,484068031.067986
0.600451,-0.608617,-1.254411,-0.784941,0.022509,-0.049221,0.617202,484068031.068477
0.583718,-0.696679,-0.818384,-0.790156,0.025209,-0.034102,0.611437,484068031.083643
0.710849,-0.727026,-0.455175,-0.794864,0.027890,-0.013250,0.606002,484068031.099577
0.546888,-0.552087,-0.248552,-0.798371,0.034855,0.004967,0.601135,484068031.099792
0.135766,-0.420963,-0.187509,-0.800929,0.044584,0.014433,0.596923,484068031.114578
-0.085713,-0.572588,-0.262030,-0.803732,0.054183,0.014624,0.592338,484068031.130670
-0.116672,-0.788240,-0.492013,-0.807087,0.064582,0.010219,0.586801,484068031.131075
-0.228783,-0.795116,-0.656000,-0.810278,0.076758,0.003836,0.580985,484068031.149449
-0.402988,-0.804207,-0.939182,-0.812170,0.089528,-0.003896,0.576498,484068031.162824
-0.564241,-0.961707,-0.838474,-0.812621,0.102808,-0.014295,0.573474,484068031.163212
-0.467800,-1.029377,-0.838697,-0.811653,0.117257,-0.028792,0.571525,484068031.177642
-0.306070,-1.057450,-0.919996,-0.808760,0.132543,-0.047105,0.571070,484068031.193457
-0.180194,-1.021770,-1.112478,-0.803674,0.145872,-0.065604,0.573172,484068031.193830
-0.156810,-0.933897,-1.098967,-0.796396,0.154014,-0.079744,0.579375,484068031.209233
-0.080297,-0.743067,-0.823176,-0.787218,0.155780,-0.087977,0.590153,484068031.224720
0.144546,-0.494293,-0.313230,-0.776762,0.151575,-0.089466,0.604700,484068031.225246
0.536452,0.075574,0.372085,-0.766734,0.137259,-0.076441,0.622444,484068031.240863
0.906278,1.025486,2.501958,-0.760697,0.113101,-0.047758,0.637391,484068031.256497
1.189751,2.260068,4.879353,-0.758946,0.100670,-0.029677,0.642640,484068031.256903
1.097723,3.099707,2.800858,-0.758496,0.102945,-0.029842,0.642803,484068031.272268
0.572804,1.298214,0.573972,-0.758138,0.108940,-0.038595,0.641771,484068031.288448
0.407145,0.149959,0.372577,-0.757596,0.113308,-0.046211,0.641150,484068031.288898
0.079552,-0.258679,-0.026794,-0.757893,0.116171,-0.048366,0.640127,484068031.303823
-0.359877,-0.169036,-0.246513,-0.758344,0.113914,-0.043543,0.640345,484068031.319409
-0.683259,-0.087155,-0.207809,-0.757829,0.105456,-0.033642,0.642995,484068031.319972
-1.035583,0.190276,0.150429,-0.755580,0.093189,-0.021935,0.648022,484068031.335104
-1.272037,0.557646,0.384140,-0.752748,0.077773,-0.007531,0.653655,484068031.351541
-1.220144,0.683753,-0.454990,-0.751167,0.061300,0.008663,0.657202,484068031.352121
-1.435099,0.991187,-0.810813,-0.748532,0.045947,0.018830,0.661236,484068031.366295
-1.013862,0.325005,-0.548245,-0.743535,0.032608,0.023267,0.667496,484068031.382273
-0.648899,-0.410219,-0.722934,-0.739329,0.018373,0.029430,0.672450,484068031.382660
-0.542217,-0.801691,-0.558640,-0.736623,0.003489,0.036706,0.675298,484068031.397996
-0.663062,-0.504334,-0.725851,-0.734216,-0.011038,0.042340,0.677505,484068031.413685
-0.855350,-0.072018,-0.884408,-0.730482,-0.026931,0.045649,0.680872,484068031.414105
-0.936144,0.228344,-0.768636,-0.725085,-0.046092,0.047101,0.685499,484068031.429820
-0.854582,0.390364,-0.654493,-0.718515,-0.066760,0.046319,0.690749,484068031.445198
-0.657594,0.353963,-0.559233,-0.710920,-0.085990,0.043025,0.696669,484068031.445579
-0.498839,0.176012,-0.470826,-0.702512,-0.102197,0.038122,0.703263,484068031.460930
-0.405642,0.086697,-0.376495,-0.693822,-0.115690,0.032233,0.710062,484068031.476695
-0.283377,0.016438,-0.265912,-0.685618,-0.127163,0.025710,0.716307,484068031.477049
-0.166142,0.006553,-0.167673,-0.678474,-0.137043,0.018230,0.721498,484068031.492336
-0.070053,0.026260,-0.113535,-0.672511,-0.145754,0.009662,0.725528,484068031.508116
0.142552,0.015548,-0.017996,-0.667563,-0.153078,0.000314,0.728647,484068031.508550
0.270823,0.033213,0.047651,-0.663648,-0.158439,-0.009770,0.731008,484068031.524154
0.471980,-0.090460,0.068725,-0.660975,-0.160640,-0.020196,0.732734,484068031.539598
0.658512,-0.249620,0.020954,-0.659435,-0.159285,-0.029781,0.734089,484068031.539981
0.808417,-0.331927,-0.045481,-0.658637,-0.155032,-0.037246,0.735374,484068031.555273
0.864062,-0.252646,-0.088540,-0.658185,-0.148776,-0.042256,0.736799,484068031.571142
0.797227,0.035272,-0.172679,-0.656903,-0.141956,-0.046084,0.739056,484068031.571663
0.816433,0.189598,-0.665018,-0.650606,-0.140769,-0.046442,0.744808,484068031.586744
0.892673,0.236813,-0.318281,-0.638371,-0.146882,-0.043258,0.754346,484068031.602736
1.009485,0.223863,0.187506,-0.624437,-0.153438,-0.041489,0.764731,484068031.603085
1.086687,0.174690,0.404469,-0.611048,-0.156716,-0.042902,0.774739,484068031.618509
1.040865,0.062342,0.441088,-0.598772,-0.156808,-0.046191,0.784060,484068031.634577
0.619201,-0.083898,0.268903,-0.587060,-0.156118,-0.048735,0.792851,484068031.634991
0.450208,-0.036122,0.271332,-0.575468,-0.157292,-0.049456,0.801031,484068031.649946
0.278912,0.056959,0.258130,-0.563937,-0.162685,-0.047779,0.808224,484068031.665892
0.057386,0.242528,0.333453,-0.552885,-0.176679,-0.042389,0.813207,484068031.666123
0.058244,0.440228,0.672875,-0.544658,-0.203380,-0.032203,0.812986,484068031.683707
0.290121,0.412588,1.047581,-0.539872,-0.234297,-0.020049,0.808233,484068031.699191
0.303598,0.333206,1.632120,-0.534488,-0.252461,-0.011042,0.806514,484068031.699424
0.230030,0.374874,1.457005,-0.531675,-0.252980,-0.011153,0.808207,484068031.712607
0.246142,0.504784,0.877161,-0.532931,-0.243129,-0.019960,0.810231,484068031.728352
0.306234,0.720630,0.559651,-0.536523,-0.227901,-0.033670,0.811832,484068031.728785
0.336768,0.880527,0.257985,-0.540310,-0.215752,-0.045512,0.812062,484068031.744654
0.581063,0.688682,0.126649,-0.542812,-0.212762,-0.048474,0.811011,484068031.759903
0.671342,0.683018,0.357113,-0.545759,-0.211082,-0.048116,0.809491,484068031.760285
0.775401,0.683135,0.277376,-0.550237,-0.207629,-0.047166,0.807406,484068031.776284
0.858839,0.706325,0.164078,-0.555804,-0.206707,-0.042562,0.804079,484068031.791622
0.883332,0.656735,0.266468,-0.562913,-0.211728,-0.032056,0.798293,484068031.792201
0.879084,0.556203,0.449425,-0.573222,-0.226703,-0.012873,0.787310,484068031.807032
0.985726,0.443163,1.019184,-0.586854,-0.250136,0.014972,0.769942,484068031.822836
0.897754,0.248316,2.620924,-0.599325,-0.259204,0.035928,0.756526,484068031.823415
0.925860,0.267396,1.787427,-0.618371,-0.259545,0.051114,0.740028,484068031.838543
0.987631,0.382876,0.518333,-0.637296,-0.255705,0.069052,0.723672,484068031.854279
0.426575,0.637600,0.384431,-0.655831,-0.245613,0.085983,0.708638,484068031.854878
-0.003610,1.056847,0.309605,-0.675990,-0.223524,0.090965,0.696276,484068031.870296
-0.186865,1.509917,0.125129,-0.698171,-0.189654,0.080942,0.685593,484068031.885779
-0.647593,2.117871,-0.140435,-0.720551,-0.151713,0.057333,0.674168,484068031.886189
-0.646835,2.121798,-0.177236,-0.739244,-0.118863,0.023527,0.662447,484068031.901642
-1.197109,2.031166,-1.442863,-0.750811,-0.096947,-0.013971,0.653214,484068031.917028
-1.049260,1.298837,-1.656536,-0.755687,-0.087670,-0.046927,0.647340,484068031.917458
-0.869214,0.779592,-1.458919,-0.758051,-0.090284,-0.069546,0.642162,484068031.933000
-0.703741,0.443141,-1.357525,-0.760890,-0.103320,-0.079243,0.635682,484068031.949837
-0.583593,0.179012,-1.228867,-0.764954,-0.124502,-0.076570,0.627282,484068031.950058
-0.408369,-0.137792,-1.008286,-0.769481,-0.149719,-0.064325,0.617531,484068031.965993
-0.177995,-0.684075,0.154484,-0.773369,-0.167735,-0.048931,0.609403,484068031.982056
-0.039451,-1.031643,0.585257,-0.778314,-0.171690,-0.035197,0.602918,484068031.982281
-0.415769,-0.638649,0.297469,-0.786171,-0.163318,-0.028499,0.595357,484068031.996161
-0.389240,-0.508512,-0.465651,-0.796947,-0.148255,-0.031499,0.584725,484068032.012694
0.037681,-0.473109,-1.110913,-0.808170,-0.135361,-0.035472,0.572084,484068032.013139
0.384970,-0.523247,-1.170891,-0.817984,-0.126172,-0.034270,0.560187,484068032.027106
0.427306,-0.559911,-1.023721,-0.826319,-0.118717,-0.028247,0.549823,484068032.042344
0.418442,-0.608626,-0.655597,-0.834323,-0.111160,-0.020663,0.539557,484068032.042562
0.402414,-0.571428,-0.537938,-0.842553,-0.101449,-0.015619,0.528743,484068032.058402
0.304484,-0.481402,-0.642971,-0.850172,-0.090139,-0.014910,0.518518,484068032.074197
0.150445,-0.471096,-0.811596,-0.856423,-0.078981,-0.018730,0.509854,484068032.074800
0.013859,-0.573540,-0.899431,-0.861473,-0.068270,-0.026941,0.502472,484068032.090682
-0.032178,-0.736488,-1.065445,-0.865434,-0.057151,-0.037017,0.496374,484068032.106106
-0.332873,-0.931490,-1.177383,-0.867878,-0.045886,-0.046088,0.492502,484068032.106599
-0.428747,-0.966580,-1.056443,-0.868549,-0.033965,-0.056154,0.491238,484068032.121616
-0.288060,-0.995598,-1.075352,-0.866760,-0.020389,-0.069944,0.493376,484068032.137587
-0.134499,-0.949999,-1.145351,-0.862383,-0.005372,-0.087650,0.498582,484068032.138086
-0.111373,-0.875893,-1.276899,-0.856180,0.006944,-0.104193,0.506016,484068032.153031
-0.117746,-0.794599,-1.077432,-0.848935,0.012705,-0.114300,0.515832,484068032.168821
0.114346,-0.692323,-0.668395,-0.840645,0.012169,-0.116723,0.528719,484068032.169795
0.586417,-0.339092,-0.087066,-0.831152,0.004482,-0.105252,0.545975,484068032.184861
0.860558,0.421205,1.264948,-0.822907,-0.011236,-0.074858,0.563111,484068032.200214
0.913575,1.701753,5.890650,-0.823301,-0.023189,-0.042490,0.565537,484068032.200431
0.245428,2.660412,3.708664,-0.822446,-0.016045,-0.042661,0.567015,484068032.216145
0.208792,1.471586,0.255705,-0.819002,-0.007644,-0.054916,0.571105,484068032.231827
0.320454,0.546393,0.274405,-0.816128,-0.003929,-0.064359,0.574262,484068032.232395
0.303676,-0.217540,0.139689,-0.814615,-0.003047,-0.069135,0.575859,484068032.247739
0.135263,-0.538672,0.064308,-0.813293,-0.003473,-0.070504,0.577557,484068032.263428
-0.228227,-0.428805,-0.111363,-0.811742,-0.004580,-0.069126,0.579893,484068032.263841
-0.564736,-0.155209,-0.341202,-0.810242,-0.009681,-0.061931,0.582734,484068032.279140
-0.842948,0.072340,-0.142787,-0.808673,-0.018926,-0.049382,0.585877,484068032.297357
-0.971437,0.378797,-0.452923,-0.806591,-0.026166,-0.039435,0.589212,484068032.297992
-1.182696,0.850118,-1.542462,-0.803672,-0.032193,-0.034658,0.593189,484068032.310789
-1.682044,1.463293,-1.636493,-0.798067,-0.042521,-0.035491,0.600018,484068032.326312
-1.116544,0.979933,-0.401684,-0.788239,-0.052475,-0.041938,0.611691,484068032.326743
-0.246832,-0.014005,-0.831549,-0.779845,-0.065123,-0.038021,0.621414,484068032.341984
-0.269791,-0.650989,-0.664244,-0.774596,-0.081046,-0.024258,0.626773,484068032.357691
-0.382780,-0.597731,-0.641148,-0.770261,-0.099169,-0.008045,0.629920,484068032.358056
-0.440463,-0.436178,-0.692176,-0.765649,-0.118983,0.007814,0.632110,484068032.373375
-0.465723,-0.150295,-0.700222,-0.760190,-0.138841,0.022128,0.634306,484068032.389074
-0.516863,0.113730,-0.626637,-0.753464,-0.156925,0.033083,0.637630,484068032.389621
-0.538144,0.230585,-0.548943,-0.745463,-0.171825,0.039230,0.642823,484068032.404985
-0.482421,0.258729,-0.478040,-0.736790,-0.183036,0.040526,0.649613,484068032.420836
-0.373561,0.236377,-0.417160,-0.728432,-0.190597,0.037258,0.657017,484068032.421604
-0.284694,0.164252,-0.436952,-0.720200,-0.196434,0.031347,0.664638,484068032.436401
-0.156245,0.024694,-0.325530,-0.712419,-0.201136,0.023551,0.671900,484068032.452339
-0.010570,-0.071183,-0.257937,-0.705224,-0.204765,0.014777,0.678610,484068032.452692
0.237560,-0.058563,-0.089474,-0.699161,-0.206854,0.005438,0.684365,484068032.467828
0.385904,-0.160981,-0.041905,-0.694696,-0.206377,-0.004048,0.689050,484068032.483636
0.520257,-0.314170,-0.024945,-0.691962,-0.202636,-0.012934,0.692791,484068032.484035
0.630426,-0.440528,-0.036511,-0.690759,-0.195488,-0.020306,0.695862,484068032.499440
0.640176,-0.402974,-0.107514,-0.690699,-0.185623,-0.025052,0.698464,484068032.514995
0.514442,-0.104137,-0.395373,-0.690071,-0.175802,-0.026216,0.701576,484068032.515380
0.330233,0.204489,-0.735818,-0.682387,-0.176054,-0.019856,0.709196,484068032.530650
0.400453,0.368664,-0.063173,-0.670436,-0.182515,-0.012281,0.719064,484068032.546676
0.555927,0.391484,0.332370,-0.659426,-0.188720,-0.008704,0.727645,484068032.547042
0.695208,0.237261,0.409822,-0.651072,-0.191967,-0.009781,0.734274,484068032.562149
0.720617,0.093610,0.227179,-0.643790,-0.193935,-0.012646,0.740110,484068032.577986
0.700589,0.016583,0.122439,-0.636474,-0.195717,-0.014563,0.745912,484068032.578360
0.442449,0.030175,0.120660,-0.629151,-0.197528,-0.014875,0.751619,484068032.594263
0.364767,0.000081,0.127507,-0.621780,-0.200000,-0.014292,0.757090,484068032.609384
0.308379,-0.014665,0.142867,-0.614224,-0.203490,-0.012920,0.762335,484068032.609797
0.256046,0.025141,0.162115,-0.606332,-0.208161,-0.010773,0.767407,484068032.625167
0.196852,0.122079,0.169475,-0.597750,-0.214836,-0.007314,0.772326,484068032.640995
0.107543,0.219369,0.212620,-0.588203,-0.225670,-0.000716,0.776588,484068032.641399
0.049294,0.255163,0.503983,-0.578494,-0.242110,0.009626,0.778868,484068032.656696
0.048364,0.244715,1.020007,-0.570693,-0.260227,0.020365,0.778574,484068032.672935
0.168414,0.251373,1.271910,-0.566711,-0.271390,0.025676,0.777513,484068032.673646
0.275226,0.329031,0.913562,-0.566769,-0.273519,0.023919,0.776780,484068032.688035
0.274871,0.358753,0.522861,-0.568928,-0.270456,0.017334,0.776449,484068032.703823
0.420018,0.322316,-0.022414,-0.570366,-0.267683,0.011045,0.776470,484068032.704229
0.542128,0.280704,0.212928,-0.570543,-0.268383,0.009082,0.776124,484068032.719572
0.597731,0.227206,0.363659,-0.571974,-0.268490,0.008098,0.775044,484068032.735287
0.646281,0.175902,0.364790,-0.575363,-0.265778,0.005658,0.773490,484068032.735661
0.701605,0.252510,0.160834,-0.579612,-0.261441,0.002314,0.771812,484068032.750812
0.765429,0.480479,0.065871,-0.583165,-0.257455,0.000493,0.770477,484068032.767029
0.805635,0.698478,0.116110,-0.586502,-0.253152,-0.000059,0.769370,484068032.767443
0.783240,0.802667,0.122395,-0.590283,-0.250225,0.001634,0.767431,484068032.782472
0.724777,0.703935,0.193151,-0.595233,-0.253146,0.008651,0.762587,484068032.798239
0.778365,0.471717,0.544682,-0.603972,-0.264560,0.022854,0.751468,484068032.798613
0.952237,0.297330,0.860970,-0.617627,-0.279485,0.041497,0.733964,484068032.814501
0.969479,0.058386,1.103222,-0.630835,-0.287300,0.059043,0.718346,484068032.834288
0.764323,0.315985,0.860406,-0.643453,-0.284438,0.072805,0.706939,484068032.834512
0.381981,0.455803,0.758521,-0.657936,-0.275982,0.084860,0.695524,484068032.848569
0.065812,0.643686,0.646019,-0.674659,-0.258333,0.090191,0.685540,484068032.861638
-0.019633,0.827759,0.295802,-0.693717,-0.229187,0.082537,0.677803,484068032.862054
0.030837,1.007311,-0.080572,-0.713989,-0.191314,0.061625,0.670687,484068032.876867
-0.086515,1.233981,-0.677657,-0.732360,-0.151273,0.031623,0.663148,484068032.892956
-0.363849,1.464521,-1.449056,-0.744872,-0.118710,0.001474,0.656560,484068032.893454
-0.608265,1.454529,-1.310519,-0.752204,-0.097432,-0.024344,0.651233,484068032.908474
-0.700970,1.203403,-1.088129,-0.757119,-0.085512,-0.046209,0.646006,484068032.923309
-0.710159,0.917857,-1.060082,-0.761499,-0.082139,-0.063205,0.639826,484068032.923542
-0.504744,0.297482,-1.193140,-0.765866,-0.087141,-0.072693,0.632907,484068032.939881
-0.366380,0.050508,-1.056656,-0.770116,-0.100122,-0.072682,0.625791,484068032.955760
-0.142423,-0.190690,-0.867260,-0.774467,-0.118026,-0.063740,0.618229,484068032.956372
0.126692,-0.526943,-0.652755,-0.778150,-0.136091,-0.047040,0.611350,484068032.971302
0.222557,-0.717714,-0.034108,-0.780165,-0.147542,-0.026267,0.607358,484068032.987215
0.035561,-0.570371,0.427310,-0.782110,-0.147912,-0.010424,0.605241,484068032.987623
-0.114312,-0.454205,0.444996,-0.786387,-0.137393,-0.006688,0.602224,484068033.002884
-0.126890,-0.389814,0.044141,-0.793256,-0.121734,-0.011625,0.596481,484068033.018793
0.019488,-0.365621,-0.512494,-0.801099,-0.107481,-0.016921,0.588560,484068033.019204
0.211155,-0.444568,-0.730461,-0.808686,-0.096081,-0.018278,0.580053,484068033.034888
0.207727,-0.497238,-0.732570,-0.815847,-0.085954,-0.017170,0.571586,484068033.049986
0.117902,-0.547470,-0.641602,-0.822480,-0.074895,-0.017601,0.563566,484068033.050373
0.014046,-0.591272,-0.597365,-0.828477,-0.061662,-0.021883,0.556187,484068033.065580
