ax,ay,az,qx,qy,qz,qw,ts
0.010282,0.000433,-0.048387,0.273722,0.129987,0.206930,0.930247,483503394.107428
0.003907,0.008940,-0.027676,0.273314,0.129426,0.206862,0.930460,483503394.119078
0.015350,0.010395,-0.037410,0.272320,0.128480,0.206773,0.930903,483503394.120436
-0.008207,-0.017924,-0.022043,0.270949,0.127092,0.206770,0.931494,483503394.136064
-0.032350,-0.044406,0.028883,0.270027,0.125549,0.207234,0.931867,483503394.150525
-0.062227,0.006993,0.041156,0.267275,0.125352,0.207963,0.932525,483503394.150753
-0.015131,0.005831,-0.112160,0.264240,0.126690,0.209166,0.932940,483503394.166207
0.032114,-0.002624,-0.208876,0.261812,0.129098,0.210851,0.932915,483503394.182582
0.024836,-0.010020,-0.218651,0.260630,0.131370,0.212395,0.932578,483503394.182956
0.016612,-0.009006,-0.106582,0.259772,0.132642,0.213431,0.932401,483503394.197800
-0.000279,0.014207,-0.008153,0.259189,0.133473,0.214029,0.932308,483503394.213627
-0.000230,0.047207,0.047017,0.257993,0.134026,0.214206,0.932519,483503394.214014
-0.016288,0.058310,0.061648,0.256310,0.134641,0.213854,0.932976,483503394.229095
0.009386,0.076704,0.096507,0.254183,0.135228,0.213312,0.933596,483503394.244778
0.013367,0.076403,0.092801,0.251734,0.135828,0.212746,0.934302,483503394.245171
-0.003162,0.046976,0.061649,0.249163,0.136539,0.211931,0.935072,483503394.260425
-0.017842,-0.036253,0.031371,0.246958,0.137116,0.210855,0.935816,483503394.276412
-0.032302,-0.038722,0.033084,0.244991,0.138157,0.209748,0.936428,483503394.276756
-0.003594,-0.027175,0.083907,0.243677,0.140169,0.208705,0.936705,483503394.292095
0.048087,-0.006122,0.112590,0.241454,0.142077,0.207877,0.937177,483503394.307772
0.094332,0.017167,0.086633,0.239251,0.144047,0.207363,0.937555,483503394.308029
0.136243,0.035653,0.044665,0.237393,0.145772,0.207082,0.937823,483503394.323410
0.138225,0.048068,-0.003748,0.236309,0.146635,0.206687,0.938049,483503394.339072
0.102427,0.050759,-0.033164,0.236035,0.146291,0.205931,0.938338,483503394.339303
0.077175,0.037913,-0.031565,0.236462,0.145133,0.204837,0.938650,483503394.355083
0.086797,0.010428,-0.009953,0.237387,0.143579,0.203547,0.938936,483503394.370575
0.090830,-0.012368,0.044906,0.238491,0.141813,0.202506,0.939150,483503394.370904
0.044152,-0.023681,0.155871,0.239098,0.139666,0.202125,0.939399,483503394.386404
-0.069221,0.032444,0.145465,0.238882,0.136864,0.202071,0.939878,483503394.402305
-0.159458,0.067072,0.158863,0.237882,0.133404,0.201403,0.940772,483503394.402528
-0.179005,0.084983,0.167799,0.235917,0.130087,0.199497,0.942137,483503394.417744
-0.156407,0.114338,0.145690,0.233059,0.126688,0.195751,0.944095,483503394.433575
-0.155543,0.160817,0.118001,0.229592,0.122799,0.189615,0.946707,483503394.433804
-0.136115,0.156304,0.145544,0.225677,0.118903,0.180983,0.949830,483503394.449537
-0.068160,0.108589,0.189063,0.221407,0.115657,0.170360,0.953195,483503394.465359
0.060033,0.033614,0.212041,0.217423,0.113432,0.159606,0.956235,483503394.465592
0.181405,-0.125023,0.282107,0.214355,0.113694,0.153022,0.957972,483503394.481080
0.198934,-0.252191,0.349192,0.212101,0.118379,0.152009,0.958067,483503394.497102
0.322141,-0.107182,0.384778,0.210244,0.128596,0.154987,0.956682,483503394.497449
0.544443,-0.037881,0.497455,0.208233,0.144753,0.161824,0.953676,483503394.512322
0.605071,0.026337,0.640453,0.204954,0.167364,0.173881,0.948551,483503394.530212
0.345808,0.078981,0.632621,0.198506,0.192850,0.190985,0.941769,483503394.530568
-0.119156,0.157903,0.410391,0.188494,0.216306,0.209282,0.934817,483503394.544735
-0.552189,0.266512,0.257214,0.175825,0.235466,0.224238,0.929171,483503394.560020
-0.738045,0.378521,0.218906,0.159479,0.253683,0.233590,0.925012,483503394.560467
-0.393680,0.494677,-0.038673,0.140778,0.270687,0.237592,0.922204,483503394.575410
-0.248958,0.564563,-0.393046,0.124501,0.281724,0.236659,0.921479,483503394.591112
-0.361118,0.678238,-0.212351,0.111552,0.288873,0.230986,0.922363,483503394.591395
-0.533022,0.625748,-0.226383,0.101828,0.296221,0.220307,0.923769,483503394.607714
-0.380220,0.524525,-0.340894,0.097180,0.304312,0.205760,0.924994,483503394.623421
-0.255941,0.598558,-0.142772,0.098574,0.313439,0.188436,0.925489,483503394.623870
-0.197286,0.607117,0.183515,0.105558,0.324650,0.169177,0.924575,483503394.639437
-0.008768,0.645531,0.556120,0.116530,0.339229,0.149184,0.921460,483503394.654559
0.093076,0.710469,0.861630,0.129500,0.357961,0.129479,0.915603,483503394.655151
0.021194,0.799673,1.026399,0.142608,0.381448,0.110527,0.906611,483503394.670438
-0.208911,0.936298,0.955698,0.154078,0.409223,0.091720,0.894642,483503394.685431
-0.442422,1.087853,0.685983,0.163409,0.439618,0.070965,0.880340,483503394.685673
-0.460025,1.209707,0.376189,0.171493,0.470174,0.046110,0.864523,483503394.701646
-0.358617,1.310920,0.119119,0.179604,0.498979,0.015839,0.847650,483503394.716924
-0.206687,1.344704,-0.002673,0.188057,0.524477,-0.020174,0.830151,483503394.717301
-0.010730,1.345917,0.028818,0.195586,0.545544,-0.060907,0.812661,483503394.733442
0.245705,1.341499,0.160546,0.200700,0.562309,-0.104598,0.795354,483503394.748674
0.433921,1.695436,-0.412597,0.203761,0.574292,-0.151546,0.778270,483503394.749096
0.877366,1.405347,0.444117,0.199922,0.578729,-0.200620,0.764759,483503394.765859
1.188420,0.986921,0.410075,0.191330,0.581455,-0.246895,0.751229,483503394.780598
1.194688,0.760510,0.274875,0.179849,0.583708,-0.289756,0.736873,483503394.781030
1.227432,0.587396,0.173755,0.166924,0.585583,-0.329342,0.721638,483503394.796183
1.241313,0.520127,0.178201,0.153730,0.587296,-0.365270,0.705711,483503394.811830
1.295739,0.338600,0.006149,0.140526,0.588378,-0.397978,0.689693,483503394.812513
1.292410,0.300720,-0.110281,0.126946,0.588063,-0.428235,0.674300,483503394.827031
1.246136,0.287802,-0.150734,0.112258,0.586040,-0.456719,0.659821,483503394.843551
1.282927,0.244005,-0.180286,0.096242,0.581928,-0.483723,0.646614,483503394.843941
1.375695,0.063355,-0.287195,0.079108,0.575588,-0.509257,0.634899,483503394.859958
1.790127,-0.285402,0.137154,0.061829,0.567761,-0.532788,0.624469,483503394.874262
1.840411,-0.609444,0.524271,0.046574,0.563016,-0.549935,0.615155,483503394.874633
1.612204,-0.633135,-0.256556,0.031844,0.559145,-0.562152,0.608546,483503394.890220
1.767043,-0.960621,0.153558,0.016032,0.551790,-0.572199,0.606514,483503394.906578
1.472501,-0.915120,0.596563,-0.001298,0.547923,-0.576213,0.606430,483503394.907219
1.289088,-0.657132,0.016961,-0.020062,0.544930,-0.577329,0.607734,483503394.922012
1.244891,-0.611793,-0.103936,-0.038208,0.541563,-0.576216,0.610921,483503394.938349
0.968151,-0.679334,-0.074359,-0.054813,0.537882,-0.573683,0.615277,483503394.939297
0.614152,-0.724087,0.207126,-0.070427,0.535453,-0.569863,0.619343,483503394.953587
0.432448,-0.557633,0.220634,-0.084706,0.534158,-0.565541,0.622627,483503394.969269
0.007184,-0.471186,0.260308,-0.097075,0.533938,-0.561831,0.624365,483503394.969655
-0.116234,-0.525874,0.278353,-0.106970,0.535321,-0.558995,0.624110,483503394.984384
-0.175506,-0.508711,0.217260,-0.113703,0.538851,-0.556793,0.621846,483503395.000091
-0.276060,-0.534315,0.117935,-0.117331,0.544047,-0.555129,0.618125,483503395.000356
-0.276314,-0.446661,-0.043821,-0.118494,0.550036,-0.554002,0.613597,483503395.016049
-0.282674,-0.352328,-0.174657,-0.117783,0.555821,-0.553571,0.608892,483503395.031577
-0.285454,-0.395851,-0.115173,-0.116634,0.561217,-0.553506,0.604205,483503395.031854
-0.272973,-0.425298,0.007345,-0.116734,0.566417,-0.553164,0.599629,483503395.047270
-0.250019,-0.372327,0.068463,-0.119483,0.571108,-0.552348,0.595375,483503395.063144
-0.240093,-0.290190,0.173472,-0.125240,0.575370,-0.550942,0.591378,483503395.063379
-0.179383,-0.364476,0.195211,-0.133522,0.579258,-0.548778,0.587771,483503395.079275
-0.087204,-0.364331,0.212746,-0.143014,0.583286,-0.545782,0.584334,483503395.095435
-0.051498,-0.285042,0.124819,-0.151686,0.588147,-0.542288,0.580515,483503395.095871
0.009205,-0.051048,-0.016690,-0.157703,0.594277,-0.539340,0.575393,483503395.111101
0.017510,0.020990,-0.091411,-0.160016,0.601991,-0.537494,0.568420,483503395.125765
0.065602,0.179134,0.001329,-0.158846,0.611205,-0.536705,0.559594,483503395.126539
0.129409,0.310455,-0.020526,-0.155759,0.620044,-0.537252,0.550131,483503395.142196
0.183025,0.337918,-0.048590,-0.152103,0.626463,-0.539983,0.541135,483503395.158331
0.238573,0.291168,0.039840,-0.148625,0.630800,-0.543908,0.533071,483503395.158731
0.281226,0.149287,0.059348,-0.145374,0.634020,-0.547894,0.526020,483503395.173721
0.242196,0.104776,0.142372,-0.142702,0.637577,-0.551151,0.519003,483503395.190068
0.116259,0.242885,0.021069,-0.142596,0.641560,-0.553229,0.511864,483503395.190481
0.083441,0.362102,-0.289060,-0.146735,0.644346,-0.554894,0.505351,483503395.205701
0.167054,-0.240660,0.234434,-0.152521,0.646299,-0.556763,0.499050,483503395.220881
-0.035056,-0.158237,0.229350,-0.157514,0.648551,-0.558515,0.492576,483503395.221338
-0.190051,-0.029478,0.190912,-0.162939,0.651211,-0.559188,0.486501,483503395.236777
-0.133561,0.152709,0.108158,-0.170662,0.654633,-0.558921,0.479518,483503395.252358
0.017436,0.311425,-0.083904,-0.181718,0.658644,-0.558294,0.470612,483503395.252763
0.060193,0.173043,-0.141617,-0.195625,0.663120,-0.557320,0.459779,483503395.267914
0.100750,0.111060,-0.220270,-0.211495,0.667642,-0.556155,0.447456,483503395.284458
0.108379,0.250667,-0.361287,-0.229798,0.671226,-0.554790,0.434576,483503395.285078
0.040373,0.509633,-0.059332,-0.248410,0.676646,-0.552586,0.418440,483503395.300019
0.397795,-0.585502,0.097296,-0.260203,0.682881,-0.552398,0.401030,483503395.315735
0.579718,-1.401293,-0.415492,-0.261866,0.687364,-0.553600,0.390491,483503395.316177
-0.562201,-0.364389,0.161839,-0.255015,0.691902,-0.557872,0.380812,483503395.331186
0.184870,-2.513669,-0.328364,-0.245088,0.697501,-0.565834,0.365043,483503395.348265
0.097142,-1.432822,-0.506362,-0.235790,0.701815,-0.573527,0.350608,483503395.349092
-0.277451,0.706872,-0.219485,-0.226468,0.701663,-0.585240,0.337454,483503395.362974
-0.326133,1.179662,-0.543671,-0.215091,0.694341,-0.605805,0.323459,483503395.378315
-0.241503,0.796714,-0.780156,-0.212424,0.677443,-0.628974,0.316763,483503395.378734
-0.166279,0.273492,-0.322988,-0.224778,0.654573,-0.647475,0.319037,483503395.393993
0.054962,-0.011417,0.383920,-0.239253,0.632352,-0.662641,0.322175,483503395.409933
-0.067834,0.401755,0.716472,-0.243428,0.617060,-0.676667,0.319534,483503395.410342
-0.584907,1.391043,-0.312191,-0.248557,0.606936,-0.685766,0.315552,483503395.425848
-0.729007,1.731316,-0.699274,-0.260708,0.602220,-0.687128,0.311797,483503395.441036
0.095061,-0.098486,0.360779,-0.267702,0.607022,-0.683752,0.303880,483503395.441465
0.138893,-0.276167,0.133693,-0.268679,0.617901,-0.677922,0.293994,483503395.457217
0.157352,-0.289527,-0.046538,-0.266869,0.630948,-0.670771,0.284169,483503395.472731
0.144576,-0.283956,-0.162627,-0.264708,0.643842,-0.662848,0.275735,483503395.473082
0.156011,-0.221783,-0.204350,-0.263679,0.654645,-0.654697,0.270712,483503395.488460
0.153530,-0.140001,-0.301001,-0.263242,0.661210,-0.648436,0.270251,483503395.503954
0.130431,-0.121230,-0.321123,-0.262179,0.662012,-0.646454,0.274043,483503395.504333
0.092598,-0.232946,-0.176763,-0.259666,0.658974,-0.647669,0.280804,483503395.520218
0.069163,-0.279898,-0.054651,-0.255703,0.654332,-0.649970,0.289833,483503395.535885
0.049155,-0.250309,0.053712,-0.250391,0.649192,-0.652234,0.300742,483503395.536285
0.024152,-0.132905,0.103619,-0.246262,0.643805,-0.653024,0.313736,483503395.551401
0.001320,0.241805,-0.328008,-0.254535,0.636266,-0.649117,0.330189,483503395.567248
0.051211,0.005226,0.067324,-0.269976,0.627208,-0.643466,0.345941,483503395.568294
0.043360,0.016964,0.318231,-0.278391,0.619853,-0.641181,0.356607,483503395.582793
0.049597,0.115012,0.406715,-0.278958,0.615608,-0.641694,0.362543,483503395.599319
0.007533,0.238696,0.318728,-0.277989,0.614151,-0.641527,0.366039,483503395.599776
0.013322,0.229759,0.256096,-0.278818,0.614866,-0.639653,0.367484,483503395.614042
0.042643,0.184973,0.185950,-0.278524,0.617432,-0.637884,0.366478,483503395.630277
0.032940,0.186077,0.061036,-0.276957,0.620965,-0.636596,0.363928,483503395.630682
0.009130,0.167583,-0.031824,-0.275441,0.624576,-0.635533,0.360743,483503395.646030
-0.019437,0.098591,-0.064570,-0.274270,0.627843,-0.634749,0.357328,483503395.661687
-0.040761,0.043361,-0.098606,-0.273741,0.630521,-0.634258,0.353873,483503395.662120
-0.062403,-0.001671,-0.123751,-0.273979,0.632374,-0.634210,0.350451,483503395.677283
-0.044667,-0.107239,-0.125145,-0.274529,0.633295,-0.634800,0.347276,483503395.692975
-0.041683,-0.176237,-0.097364,-0.275551,0.633209,-0.635825,0.344738,483503395.693405
-0.072744,-0.227043,-0.057562,-0.277135,0.632267,-0.637095,0.342847,483503395.709340
-0.057006,-0.237081,-0.046404,-0.277953,0.630813,-0.639197,0.340946,483503395.724257
-0.038546,-0.175552,0.019181,-0.278117,0.629347,-0.641510,0.339174,483503395.724716
-0.055595,-0.042868,0.134737,-0.277694,0.629267,-0.642850,0.337126,483503395.740387
-0.078747,0.048496,0.170090,-0.276375,0.631668,-0.642341,0.334681,483503395.755727
-0.082651,0.096309,0.053097,-0.274519,0.635511,-0.639993,0.333427,483503395.756322
-0.071330,0.200343,-0.144003,-0.273315,0.638168,-0.636829,0.335395,483503395.771761
-0.062025,0.308395,-0.195855,-0.273629,0.638841,-0.633541,0.340052,483503395.787872
-0.034558,0.314256,-0.104262,-0.275213,0.638993,-0.629868,0.345271,483503395.788284
0.082009,0.044345,-0.098380,-0.277724,0.639348,-0.625579,0.350364,483503395.803127
0.068536,-0.021936,-0.106466,-0.280745,0.639370,-0.620849,0.356278,483503395.818860
0.076627,-0.081131,-0.070782,-0.284189,0.638926,-0.615683,0.363243,483503395.819254
0.135256,-0.607435,0.045720,-0.286811,0.638446,-0.610280,0.371059,483503395.834611
0.227985,-1.425697,0.252547,-0.287179,0.639137,-0.604593,0.378814,483503395.850359
0.227651,-1.100667,0.046046,-0.285649,0.640324,-0.598667,0.387283,483503395.850771
0.057318,-0.108850,-0.005986,-0.284645,0.639436,-0.594458,0.395877,483503395.866114
0.185292,-0.165335,0.099367,-0.283152,0.638288,-0.590675,0.404373,483503395.882114
0.223348,-0.141723,0.192689,-0.278209,0.638692,-0.585931,0.413952,483503395.882471
0.121239,0.098023,0.208130,-0.271416,0.640317,-0.580646,0.423293,483503395.897574
0.055853,0.118572,0.160719,-0.265707,0.642025,-0.575075,0.431847,483503395.913426
-0.122549,0.214971,0.006694,-0.261096,0.642023,-0.571951,0.438757,483503395.913820
-0.227581,0.321294,0.013209,-0.256629,0.640423,-0.572554,0.442924,483503395.929255
-0.468343,0.308703,-0.117533,-0.254600,0.637062,-0.576394,0.443960,483503395.944841
-0.285058,0.692335,-0.247896,-0.258627,0.630687,-0.582799,0.442371,483503395.945333
0.022093,1.438282,-0.082321,-0.265731,0.624277,-0.588131,0.440189,483503395.960783
0.064806,1.361768,-0.061062,-0.272299,0.619859,-0.590988,0.438590,483503395.976254
-0.087816,0.259851,0.067796,-0.277706,0.616412,-0.593682,0.436415,483503395.976760
-0.179519,0.079507,0.058759,-0.284515,0.613456,-0.597758,0.430591,483503395.992131
-0.122753,0.498840,0.011099,-0.290980,0.610981,-0.603552,0.421613,483503396.007865
-0.178635,0.441710,-0.006957,-0.293830,0.609867,-0.608744,0.413710,483503396.008284
-0.456048,-0.001687,0.025225,-0.296919,0.608400,-0.612478,0.408116,483503396.023474
-0.413750,-0.298364,0.173432,-0.300933,0.606809,-0.615387,0.403138,483503396.039155
-0.158073,-0.224084,0.286615,-0.303050,0.607229,-0.617500,0.397652,483503396.039515
-0.183671,-0.169743,0.091200,-0.302551,0.609977,-0.617825,0.393297,483503396.055126
-0.299004,-0.148958,0.016237,-0.300604,0.613025,-0.617316,0.390842,483503396.070561
-0.156118,-0.066176,-0.064021,-0.299927,0.614039,-0.617733,0.389108,483503396.070949
-0.016985,-0.110179,-0.044398,-0.301193,0.613394,-0.618068,0.388616,483503396.086381
0.003390,-0.171046,-0.101640,-0.304091,0.612165,-0.617281,0.389546,483503396.102400
-0.037241,-0.186433,-0.189600,-0.308492,0.609887,-0.615881,0.391868,483503396.102812
-0.087998,-0.218293,-0.163693,-0.314167,0.606796,-0.614237,0.394729,483503396.117872
-0.103416,-0.192885,-0.111079,-0.320432,0.603561,-0.612698,0.397038,483503396.133354
-0.136536,-0.102031,-0.065076,-0.326392,0.600525,-0.611851,0.398091,483503396.134040
-0.185116,-0.055166,-0.067919,-0.332521,0.597072,-0.612339,0.397461,483503396.149440
-0.104737,0.119476,-0.078778,-0.338958,0.593027,-0.614049,0.395436,483503396.164826
0.034549,0.146335,-0.074896,-0.345366,0.588175,-0.617010,0.392518,483503396.165211
0.133789,0.010500,-0.036923,-0.350820,0.582746,-0.620914,0.389613,483503396.181155
0.175131,-0.069369,0.100909,-0.354967,0.577415,-0.624833,0.387521,483503396.196761
0.169248,0.172277,0.228469,-0.358134,0.573286,-0.627754,0.386015,483503396.197161
0.198125,0.334181,0.309348,-0.360906,0.570841,-0.629418,0.384344,483503396.212244
0.218787,0.325203,0.329004,-0.363773,0.570162,-0.629427,0.382631,483503396.228731
0.191186,0.312681,0.260818,-0.367036,0.570764,-0.627659,0.381519,483503396.229101
0.165110,0.295330,0.183756,-0.370607,0.572121,-0.624407,0.381372,483503396.244188
0.096384,0.304699,0.129178,-0.374266,0.574048,-0.620077,0.381966,483503396.259381
-0.002863,0.262272,0.068221,-0.377897,0.576117,-0.615276,0.383039,483503396.259946
-0.171337,0.171457,0.047646,-0.381143,0.578136,-0.610580,0.384292,483503396.275492
-0.225055,0.191575,0.061589,-0.383813,0.580240,-0.606119,0.385523,483503396.291462
-0.236271,0.211174,0.078201,-0.386057,0.582563,-0.601887,0.386411,483503396.292083
-0.213456,0.221237,0.065528,-0.388198,0.585184,-0.597471,0.387158,483503396.306947
-0.197490,0.215083,0.037649,-0.390532,0.587986,-0.592504,0.388197,483503396.322276
-0.177289,0.201686,-0.017927,-0.393123,0.590744,-0.586989,0.389769,483503396.322704
-0.150236,0.186503,-0.199961,-0.395569,0.592407,-0.582272,0.391840,483503396.338145
-0.002978,0.130484,-0.249729,-0.396900,0.592602,-0.578985,0.395056,483503396.353997
0.026513,0.137835,-0.185381,-0.398112,0.591923,-0.575808,0.399473,483503396.354408
0.075121,0.003990,0.086809,-0.400343,0.592382,-0.570741,0.403811,483503396.369950
0.028904,-0.144500,0.176274,-0.404872,0.594188,-0.563034,0.407446,483503396.385038
-0.120057,-0.279786,0.160098,-0.410093,0.596209,-0.554522,0.410929,483503396.385420
-0.174011,-0.204558,0.194294,-0.414825,0.598395,-0.546427,0.413836,483503396.401197
-0.146375,-0.161469,0.228933,-0.419288,0.600623,-0.538821,0.416079,483503396.416815
-0.124003,-0.112978,0.208674,-0.423582,0.603184,-0.531426,0.417532,483503396.417168
-0.098727,-0.111366,0.167521,-0.428116,0.606111,-0.523782,0.418328,483503396.432854
-0.129082,-0.161185,0.091673,-0.433042,0.609324,-0.515749,0.418571,483503396.448074
-0.065414,-0.179339,-0.016571,-0.437931,0.612301,-0.507676,0.419010,483503396.448505
0.073336,-0.212783,-0.097260,-0.441604,0.614978,-0.500481,0.419889,483503396.464130
0.097195,-0.271832,-0.104919,-0.444181,0.617125,-0.494033,0.421654,483503396.480033
0.079136,-0.296836,-0.067615,-0.446136,0.618730,-0.488206,0.424017,483503396.480410
-0.017080,-0.099770,-0.058479,-0.447519,0.619890,-0.483247,0.426538,483503396.495469
-0.087051,-0.101305,-0.123204,-0.448133,0.620405,-0.479843,0.428981,483503396.511341
-0.075802,-0.141792,-0.121213,-0.448283,0.620442,-0.477638,0.431227,483503396.511579
-0.060004,-0.157716,-0.138797,-0.448344,0.620148,-0.476089,0.433294,483503396.528024
-0.040755,-0.198878,-0.150266,-0.448370,0.619401,-0.475058,0.435463,483503396.543470
-0.036108,-0.234088,-0.168650,-0.448251,0.618031,-0.474731,0.437882,483503396.543897
-0.044271,-0.246609,-0.169209,-0.447937,0.616031,-0.475151,0.440556,483503396.557619
-0.060675,-0.223326,-0.130007,-0.447587,0.613381,-0.476216,0.443451,483503396.573484
-0.061202,-0.176040,-0.060682,-0.447305,0.610149,-0.477797,0.446482,483503396.573765
-0.050103,-0.102713,0.036897,-0.447167,0.606539,-0.479764,0.449420,483503396.589087
-0.023771,-0.017269,0.156553,-0.447451,0.602791,-0.481765,0.452032,483503396.604974
-0.011449,0.060390,0.192092,-0.448337,0.598733,-0.483322,0.454877,483503396.605252
-0.007055,0.130696,0.242161,-0.449863,0.594404,-0.484332,0.457963,483503396.907423
0.008713,0.239199,0.251981,-0.451881,0.589791,-0.484685,0.461553,483503396.923424
0.019665,0.261247,0.296356,-0.453934,0.585220,-0.484673,0.465354,483503396.923693
0.019761,0.203175,0.229115,-0.455454,0.581313,-0.484908,0.468511,483503396.941857
-0.026421,0.108090,0.107662,-0.456251,0.578043,-0.485363,0.471299,483503396.954604
-0.081254,0.041428,0.084241,-0.456580,0.575057,-0.486039,0.473931,483503396.954877
-0.144897,0.012406,0.115808,-0.456692,0.572369,-0.487016,0.476069,483503396.970350
-0.186793,-0.052032,0.121369,-0.456808,0.570043,-0.488282,0.477449,483503396.985943
-0.191650,-0.123888,0.049324,-0.457221,0.567824,-0.489477,0.478473,483503396.986205
-0.162424,-0.160711,0.009346,-0.457961,0.565577,-0.490564,0.479313,483503397.001820
-0.104347,-0.196524,-0.033322,-0.458730,0.563373,-0.491599,0.480112,483503397.017440
-0.032879,-0.166368,-0.103879,-0.459162,0.561338,-0.492696,0.480957,483503397.017714
0.051496,0.026966,-0.177093,-0.459402,0.559434,-0.493714,0.481902,483503397.034442
0.102243,0.074187,-0.217159,-0.459739,0.557393,-0.494515,0.483123,483503397.049285
0.156320,0.099679,-0.229107,-0.460047,0.555108,-0.495169,0.484788,483503397.049516
0.186063,0.114606,-0.201664,-0.460043,0.552774,-0.495880,0.486729,483503397.064840
0.195384,0.108941,-0.144540,-0.459534,0.550760,-0.496752,0.488600,483503397.080451
0.169307,0.094327,-0.091038,-0.458733,0.549144,-0.497475,0.490432,483503397.080676
0.138234,0.068671,-0.053495,-0.457807,0.548017,-0.498025,0.491998,483503397.096204
0.101305,0.055950,-0.012132,-0.456502,0.547624,-0.498900,0.492760,483503397.112210
0.055219,0.050708,-0.056218,-0.454796,0.547853,-0.500033,0.492934,483503397.112514
0.014282,0.034132,-0.129101,-0.453033,0.548127,-0.501244,0.493024,483503397.127638
0.006254,0.013945,-0.176059,-0.451277,0.548117,-0.502378,0.493491,483503397.143383
-0.004862,0.031252,-0.169337,-0.449617,0.547710,-0.503322,0.494495,483503397.143611
-0.039140,0.027056,-0.147092,-0.448137,0.546861,-0.503744,0.496345,483503397.159126
-0.087131,-0.030771,-0.120379,-0.447122,0.545586,-0.503371,0.499034,483503397.174853
-0.135255,-0.054127,-0.071380,-0.446495,0.543886,-0.502403,0.502415,483503397.175082
-0.164046,-0.069023,0.013780,-0.446236,0.541893,-0.501124,0.506064,483503397.190538
-0.175686,-0.042249,0.015101,-0.446262,0.539737,-0.499768,0.509672,483503397.206454
-0.174037,-0.011625,-0.013952,-0.446578,0.537351,-0.498516,0.513132,483503397.206680
-0.245934,0.067713,-0.085710,-0.447499,0.534445,-0.497380,0.516456,483503397.222094
-0.092247,0.119592,0.017825,-0.448900,0.531360,-0.496094,0.519650,483503397.237816
0.059852,0.029494,0.023538,-0.450230,0.528653,-0.494679,0.522601,483503397.238046
0.020617,-0.043607,0.106289,-0.451577,0.526408,-0.493001,0.525283,483503397.253691
-0.069395,0.000466,0.012043,-0.453395,0.524025,-0.491103,0.527871,483503397.269216
-0.056178,0.028571,0.032440,-0.455167,0.521619,-0.489520,0.530195,483503397.269452
-0.021247,0.083729,0.077672,-0.456628,0.519370,-0.488523,0.532063,483503397.284990
0.045261,0.086945,0.081631,-0.457728,0.517520,-0.488026,0.533374,483503397.301057
0.089609,0.057577,0.011401,-0.458941,0.515807,-0.487343,0.534615,483503397.301471
0.149778,0.030561,-0.028921,-0.460444,0.513943,-0.486220,0.536138,483503397.316694
0.156783,0.017435,-0.026715,-0.461995,0.512053,-0.484769,0.537923,483503397.332472
0.126960,-0.004654,0.035202,-0.463358,0.510374,-0.483270,0.539693,483503397.332700
0.088652,-0.018549,0.087960,-0.464471,0.509065,-0.481884,0.541210,483503397.348112
0.064413,-0.028308,0.091211,-0.465379,0.508129,-0.480613,0.542438,483503397.363720
0.035427,-0.041710,0.096223,-0.466151,0.507454,-0.479476,0.543411,483503397.363954
0.015353,-0.046373,0.106388,-0.466744,0.506961,-0.478548,0.544181,483503397.379657
-0.002416,-0.014733,0.030046,-0.467121,0.506562,-0.477883,0.544812,483503397.395497
-0.002900,0.009519,-0.008975,-0.467509,0.506017,-0.477285,0.545510,483503397.395773
0.012659,0.022357,-0.002685,-0.468098,0.505177,-0.476520,0.546452,483503397.410990
0.013716,0.024367,0.035514,-0.468896,0.504040,-0.475538,0.547672,483503397.426515
0.002405,0.010033,0.073867,-0.469865,0.502784,-0.474362,0.549014,483503397.426741
-0.013073,-0.004743,0.103734,-0.471045,0.501509,-0.473016,0.550328,483503397.442565
-0.027734,-0.001400,0.112548,-0.472409,0.500265,-0.471649,0.551464,483503397.458353
-0.019255,0.011771,0.107630,-0.474041,0.498996,-0.470188,0.552459,483503397.458773
-0.013367,0.031173,0.095603,-0.475977,0.497634,-0.468587,0.553383,483503397.473887
-0.007243,0.037582,0.098191,-0.478259,0.496106,-0.466816,0.554283,483503397.489817
0.009792,0.022232,0.113701,-0.480844,0.494478,-0.464800,0.555195,483503397.490057
0.036024,-0.023040,0.173479,-0.483635,0.492968,-0.462528,0.556011,483503397.505482
0.059896,-0.046576,0.189663,-0.486556,0.491735,-0.460120,0.556551,483503397.521817
0.090645,-0.083012,0.183625,-0.489621,0.490745,-0.457529,0.556873,483503397.522244
0.112091,-0.116198,0.173992,-0.492872,0.490012,-0.454537,0.557101,483503397.537841
0.134243,-0.143902,0.184476,-0.496252,0.489557,-0.451177,0.557231,483503397.553271
0.173813,-0.157783,0.221878,-0.499712,0.489488,-0.447442,0.557211,483503397.553808
0.207066,-0.184368,0.238992,-0.503343,0.489917,-0.443125,0.557016,483503397.568881
0.233558,-0.231041,0.228396,-0.507144,0.490735,-0.438004,0.556900,483503397.584512
0.248241,-0.280719,0.194040,-0.510889,0.491836,-0.432271,0.556984,483503397.584940
0.223833,-0.302960,0.145252,-0.514298,0.493440,-0.426212,0.557097,483503397.600771
0.164957,-0.302168,0.110878,-0.517288,0.495381,-0.420242,0.557142,483503397.616256
-0.004658,-0.242069,0.047031,-0.519825,0.497298,-0.414841,0.557121,483503397.617076
-0.067329,-0.194008,0.024220,-0.521766,0.499227,-0.410489,0.556805,483503397.632134
-0.045085,-0.166493,-0.010935,-0.523040,0.501266,-0.407408,0.556040,483503397.647751
0.000971,-0.128486,-0.045930,-0.523927,0.503163,-0.405269,0.555054,483503397.648186
0.050411,-0.064518,-0.045144,-0.524730,0.504603,-0.403522,0.554261,483503397.663392
0.054136,-0.070684,-0.014965,-0.525856,0.505592,-0.401838,0.553514,483503397.678985
0.094946,-0.156396,0.041545,-0.527218,0.506388,-0.400261,0.552633,483503397.679488
0.101173,-0.170143,0.121005,-0.529008,0.507018,-0.398546,0.551583,483503397.694831
0.056046,-0.137132,0.133350,-0.531324,0.507741,-0.396763,0.549975,483503397.710651
0.041325,-0.123803,0.099838,-0.533781,0.508936,-0.395313,0.547531,483503397.711015
0.066806,-0.163070,0.027149,-0.536066,0.510577,-0.394343,0.544461,483503397.726321
0.116892,-0.210160,-0.005332,-0.538206,0.512481,-0.393714,0.541005,483503397.741989
0.123535,-0.255908,-0.034024,-0.540384,0.514691,-0.393020,0.537228,483503397.742380
0.130525,-0.324805,-0.106605,-0.542606,0.517295,-0.391872,0.533312,483503397.758148
0.173170,-0.378806,-0.079963,-0.544675,0.520039,-0.390511,0.529518,483503397.773385
0.228066,-0.356758,-0.002684,-0.546536,0.522690,-0.388885,0.526177,483503397.773754
0.205739,-0.266583,0.049209,-0.548309,0.525119,-0.387065,0.523247,483503397.789077
0.152654,-0.185261,0.068407,-0.549940,0.527664,-0.385438,0.520167,483503397.806142
0.097622,-0.143635,0.057526,-0.551537,0.530394,-0.384004,0.516750,483503397.806584
0.118115,-0.155480,0.008624,-0.552942,0.533409,-0.382771,0.513047,483503397.820754
0.162237,-0.173062,0.048544,-0.554234,0.536620,-0.381652,0.509123,483503397.836834
0.239463,-0.135722,0.199066,-0.555812,0.540175,-0.379889,0.504945,483503397.837283
0.307883,-0.057779,0.300996,-0.557628,0.544598,-0.377342,0.500077,483503397.852510
0.416191,0.061688,0.395313,-0.559218,0.550569,-0.374489,0.493870,483503397.867931
0.429338,0.185618,0.418592,-0.560145,0.558886,-0.371268,0.485844,483503397.868315
0.524849,0.312812,0.421507,-0.560210,0.569517,-0.367374,0.476290,483503397.885329
0.537435,0.545360,0.587848,-0.559328,0.582609,-0.362259,0.465282,483503397.899652
0.634010,0.787205,0.633304,-0.557050,0.598680,-0.355479,0.452673,483503397.900447
0.392960,0.997323,0.397289,-0.553211,0.616876,-0.346517,0.439713,483503397.915062
-0.121403,1.133387,-0.059410,-0.549458,0.633946,-0.334712,0.429157,483503397.931083
-0.287578,1.056394,-0.169796,-0.546114,0.649353,-0.320881,0.420875,483503397.931501
-0.301937,0.956524,-0.265685,-0.542700,0.664029,-0.306861,0.412769,483503397.946671
-0.429551,0.885368,-0.794312,-0.538631,0.676802,-0.294618,0.406222,483503397.962752
-0.325231,0.826374,-0.698859,-0.532873,0.688382,-0.284583,0.401484,483503397.962982
-0.474619,0.611947,-0.460160,-0.526164,0.698148,-0.275698,0.399664,483503397.977540
-0.768656,0.233671,-0.144754,-0.519790,0.705478,-0.267223,0.400888,483503397.993591
-0.799462,0.135213,0.068950,-0.514502,0.711162,-0.258691,0.403255,483503397.994034
-0.596357,0.232216,0.097986,-0.510008,0.716015,-0.250017,0.405841,483503398.009515
-0.347554,0.369094,0.093619,-0.506012,0.720138,-0.241476,0.408708,483503398.025239
-0.163159,0.391227,-0.036208,-0.502918,0.723249,-0.233629,0.411585,483503398.025647
0.016906,0.379539,-0.061603,-0.500963,0.725338,-0.226990,0.414001,483503398.040929
0.142717,0.299857,-0.089785,-0.500071,0.726819,-0.222317,0.415016,483503398.056818
0.143174,0.156970,-0.139294,-0.500037,0.727852,-0.220300,0.414321,483503398.057241
0.023716,0.009849,-0.211642,-0.500114,0.728593,-0.220908,0.412599,483503398.072733
-0.150312,-0.120483,-0.244897,-0.499860,0.729026,-0.223861,0.410546,483503398.088330
-0.368235,-0.263817,-0.293508,-0.499094,0.729183,-0.228713,0.408519,483503398.088708
-0.444361,-0.308718,-0.330837,-0.498015,0.728892,-0.234788,0.406905,483503398.104060
-0.527533,-0.358453,-0.384036,-0.497092,0.727854,-0.241460,0.405987,483503398.119845
-0.580026,-0.416108,-0.431940,-0.496577,0.725878,-0.248370,0.405986,483503398.120439
-0.624830,-0.444956,-0.464767,-0.496514,0.722816,-0.255456,0.407128,483503398.135495
-0.646546,-0.444343,-0.472236,-0.497053,0.718589,-0.262687,0.409346,483503398.151296
-0.640881,-0.425790,-0.471238,-0.498106,0.713224,-0.270143,0.412583,483503398.151735
-0.615882,-0.405751,-0.452770,-0.499713,0.706714,-0.277985,0.416613,483503398.166810
-0.575069,-0.379624,-0.409870,-0.501682,0.699297,-0.286316,0.421096,483503398.182741
-0.512068,-0.366971,-0.380154,-0.503827,0.691160,-0.295104,0.425876,483503398.183516
-0.449394,-0.373849,-0.364985,-0.505925,0.682390,-0.304081,0.431183,483503398.198672
-0.410256,-0.380761,-0.403570,-0.507816,0.672861,-0.313209,0.437356,483503398.214037
-0.350245,-0.399637,-0.334974,-0.509458,0.662426,-0.322506,0.444561,483503398.214474
-0.275837,-0.422636,-0.282889,-0.510838,0.651288,-0.331858,0.452481,483503398.230146
-0.182030,-0.423415,-0.229994,-0.511789,0.639913,-0.341032,0.460739,483503398.245474
-0.063737,-0.396934,-0.080900,-0.512281,0.628946,-0.349612,0.468793,483503398.245981
0.002770,-0.352257,0.090964,-0.512117,0.619606,-0.357503,0.475411,483503398.261305
-0.052333,-0.292253,0.212276,-0.511526,0.612367,-0.364679,0.479956,483503398.276882
-0.079449,-0.176009,0.224469,-0.510930,0.607060,-0.370962,0.482510,483503398.277260
0.015205,0.014227,0.136554,-0.510587,0.602908,-0.376615,0.483698,483503398.292844
0.195175,0.107171,0.073233,-0.510158,0.599267,-0.382365,0.484165,483503398.308247
0.412472,0.161911,0.059012,-0.508867,0.595701,-0.388695,0.484883,483503398.308671
0.775912,0.333579,0.212261,-0.506735,0.591661,-0.394866,0.487070,483503398.324234
0.864004,0.279554,0.568252,-0.505289,0.586491,-0.397902,0.492326,483503398.340259
0.668145,0.098561,0.976379,-0.506054,0.580592,-0.395923,0.500067,483503398.340796
0.334799,-0.121145,1.088694,-0.508065,0.575796,-0.391143,0.507283,483503398.355608
0.068725,-0.313207,0.898254,-0.509673,0.573094,-0.386522,0.512247,483503398.371484
-0.145655,-0.389677,0.609435,-0.510871,0.571873,-0.382756,0.515237,483503398.371867
-0.215963,-0.453391,0.311272,-0.511874,0.571620,-0.379657,0.516814,483503398.387195
-0.283443,-0.557418,-0.084048,-0.512444,0.571707,-0.377367,0.517828,483503398.403315
-0.359130,-0.489778,-0.539076,-0.512229,0.571217,-0.376540,0.519181,483503398.403691
-0.391834,-0.487873,-0.837844,-0.510536,0.569472,-0.378040,0.521671,483503398.418734
-0.418098,-0.390800,-0.796017,-0.506724,0.566598,-0.382582,0.525194,483503398.434457
-0.513296,0.101242,-0.555875,-0.501492,0.562249,-0.389981,0.529431,483503398.434831
-0.374217,1.722841,-0.469451,-0.495525,0.556944,-0.398852,0.534027,483503398.450198
-0.133314,2.067692,-0.094428,-0.488731,0.552012,-0.408764,0.537901,483503398.465895
0.483435,1.753230,0.622972,-0.482688,0.546901,-0.417723,0.541682,483503398.466340
1.130020,0.928642,1.326310,-0.481779,0.542285,-0.419042,0.546095,483503398.481690
1.176350,0.225437,0.906867,-0.486413,0.539326,-0.410544,0.551347,483503398.497061
0.168127,-0.022377,0.210189,-0.489835,0.539026,-0.401233,0.555450,483503398.497458
-0.293385,0.185918,0.109049,-0.489543,0.540692,-0.396175,0.557714,483503398.512901
-0.378145,1.202906,0.373757,-0.487619,0.542752,-0.395574,0.557826,483503398.528777
-0.337852,2.544291,0.069485,-0.488619,0.542807,-0.395868,0.556688,483503398.529230
0.528500,1.966039,0.541773,-0.491412,0.544711,-0.394878,0.553060,483503398.544544
1.023496,0.188309,0.560673,-0.494399,0.549781,-0.391205,0.547968,483503398.560231
-0.025768,-0.665140,-0.867599,-0.496243,0.556065,-0.387855,0.542313,483503398.560455
-0.240921,-0.666047,-0.834183,-0.495662,0.561714,-0.387444,0.537293,483503398.576861
-0.311488,-0.486955,-0.598549,-0.492977,0.565911,-0.389877,0.533586,483503398.591697
-0.355241,-0.247525,-0.677962,-0.489379,0.568002,-0.393856,0.531752,483503398.592224
-0.364047,-0.152036,-0.812218,-0.486141,0.566836,-0.397407,0.533321,483503398.607645
-0.371851,-0.156767,-0.527699,-0.484283,0.562892,-0.398968,0.538002,483503398.623158
-0.374559,-0.169201,-0.076353,-0.483974,0.558251,-0.398574,0.543382,483503398.623726
-0.406899,-0.070985,0.131284,-0.484792,0.554035,-0.397483,0.547749,483503398.639049
-0.342863,0.013302,0.111930,-0.486260,0.549587,-0.396543,0.551597,483503398.654213
-0.185251,0.124744,0.131411,-0.488364,0.544262,-0.395683,0.555621,483503398.654434
-0.078946,0.105022,0.194699,-0.491311,0.538214,-0.394686,0.559609,483503398.670507
0.113870,0.055235,0.237553,-0.494815,0.532253,-0.393744,0.562877,483503398.686020
0.133023,-0.044073,0.150318,-0.498271,0.527120,-0.393489,0.564834,483503398.686400
0.152208,-0.143636,0.093432,-0.501658,0.522724,-0.393821,0.565689,483503398.701878
0.119695,-0.214943,0.084233,-0.505301,0.518798,-0.394326,0.565709,483503398.717790
0.127207,-0.240422,0.076095,-0.508877,0.515486,-0.395361,0.564808,483503398.718462
0.224788,-0.244298,0.053524,-0.511885,0.512813,-0.397103,0.563299,483503398.733540
0.338076,-0.245716,0.079687,-0.514113,0.510664,-0.399365,0.561620,483503398.749363
0.473021,-0.213605,0.189544,-0.515993,0.508985,-0.401459,0.559925,483503398.750777
0.592225,-0.161449,0.355903,-0.518336,0.507806,-0.401990,0.558449,483503398.764810
0.494300,-0.091156,0.535491,-0.521663,0.507497,-0.400543,0.556668,483503398.780790
0.224812,-0.044758,0.669495,-0.524747,0.509935,-0.399336,0.552393,483503398.781201
-0.190157,-0.238235,0.091885,-0.526831,0.514982,-0.400030,0.545178,483503398.796262
-0.220379,-0.295296,-0.079296,-0.528575,0.520488,-0.401998,0.536749,483503398.811954
-0.171672,-0.315130,-0.171800,-0.530126,0.525194,-0.404575,0.528637,483503398.812389
-0.083817,-0.277609,-0.149879,-0.531489,0.528696,-0.407471,0.521505,483503398.827757
0.013411,-0.227157,-0.039761,-0.532797,0.531566,-0.410189,0.515082,483503398.843451
0.074876,-0.232035,-0.046507,-0.534670,0.534008,-0.411844,0.509263,483503398.843826
0.081494,-0.248886,-0.079093,-0.537399,0.535791,-0.411825,0.504510,483503398.859158
0.087033,-0.248690,0.018049,-0.540900,0.536928,-0.410093,0.500958,483503398.874984
0.080071,-0.240678,0.107060,-0.544622,0.538029,-0.407500,0.497851,483503398.875354
0.077989,-0.227223,0.054610,-0.547870,0.539419,-0.405074,0.494754,483503398.890728
0.080273,-0.199236,-0.105749,-0.550751,0.540580,-0.402660,0.492251,483503398.906425
0.068540,-0.205912,-0.206446,-0.553440,0.541392,-0.400114,0.490417,483503398.906791
0.128180,-0.319623,-0.195974,-0.556129,0.541868,-0.397186,0.489226,483503398.922785
0.165097,-0.393132,-0.079386,-0.559049,0.542336,-0.393131,0.488655,483503398.937658
0.158227,-0.441834,0.033298,-0.561827,0.543572,-0.388751,0.487599,483503398.937997
0.131972,-0.421809,0.107287,-0.564080,0.546000,-0.384582,0.485587,483503398.953660
0.127808,-0.366677,0.129455,-0.566178,0.549352,-0.380511,0.482562,483503398.969754
0.085334,-0.239457,0.118435,-0.568358,0.553248,-0.376389,0.478767,483503398.970174
0.095935,-0.030069,0.172052,-0.570571,0.557663,-0.372245,0.474231,483503398.985057
0.146081,0.146785,0.205812,-0.572680,0.563132,-0.367927,0.468562,483503399.001281
0.228059,0.263680,0.134021,-0.574488,0.569859,-0.362928,0.462069,483503399.002090
0.401792,0.354903,0.121654,-0.575357,0.578281,-0.357003,0.455086,483503399.016576
0.521144,0.526569,0.318811,-0.575010,0.588881,-0.349415,0.447763,483503399.032285
0.495229,1.050427,0.777622,-0.573043,0.602276,-0.339552,0.439989,483503399.032667
0.149963,1.356955,0.476022,-0.569831,0.617684,-0.326589,0.432549,483503399.048757
-0.183374,1.490292,0.256358,-0.566325,0.633261,-0.310703,0.426286,483503399.063886
-0.208887,1.512208,0.226169,-0.563147,0.647845,-0.294033,0.420365,483503399.064719
-0.143438,1.318377,-0.055725,-0.559533,0.661745,-0.279285,0.413540,483503399.079286
-0.261827,1.180787,-0.729475,-0.554464,0.674687,-0.266037,0.408156,483503399.095334
-0.300967,1.071140,-0.417207,-0.548512,0.684954,-0.253399,0.407138,483503399.095724
-0.417671,0.781049,-0.030723,-0.543126,0.693567,-0.241841,0.406809,483503399.110962
-0.497047,0.412992,0.032304,-0.538476,0.700699,-0.231412,0.406832,483503399.126994
-0.509280,0.105142,0.037480,-0.534280,0.706797,-0.221851,0.407143,483503399.127400
-0.498447,-0.042108,0.029856,-0.530696,0.711841,-0.213511,0.407501,483503399.142654
-0.239977,-0.090969,-0.064335,-0.527768,0.715647,-0.206633,0.408183,483503399.158174
-0.088256,-0.036932,-0.096574,-0.525672,0.718229,-0.201274,0.409030,483503399.158749
0.002686,0.028713,-0.127613,-0.524646,0.719875,-0.197689,0.409201,483503399.173756
-0.033638,0.035426,-0.179018,-0.524625,0.720833,-0.196215,0.408250,483503399.189563
-0.130326,-0.052668,-0.263043,-0.525065,0.721405,-0.197108,0.406239,483503399.190047
-0.224779,-0.170498,-0.351267,-0.525468,0.721756,-0.200211,0.403569,483503399.206645
-0.298547,-0.252800,-0.402599,-0.525455,0.721808,-0.205191,0.400983,483503399.221915
-0.372039,-0.338181,-0.436388,-0.525192,0.721155,-0.211292,0.399329,483503399.222645
-0.463653,-0.425099,-0.472333,-0.525066,0.719339,-0.217911,0.399214,483503399.236915
-0.535616,-0.473786,-0.487893,-0.525256,0.716068,-0.224715,0.401069,483503399.252497
-0.574925,-0.512396,-0.480020,-0.525891,0.711212,-0.231529,0.404982,483503399.252870
-0.598495,-0.510937,-0.487639,-0.527121,0.704835,-0.238001,0.410738,483503399.268315
-0.605355,-0.489026,-0.503208,-0.529007,0.697011,-0.244067,0.418042,483503399.284576
-0.594237,-0.459787,-0.489834,-0.531462,0.687828,-0.249855,0.426629,483503399.284978
-0.560755,-0.429732,-0.454294,-0.534220,0.677646,-0.255578,0.435987,483503399.299666
-0.506672,-0.399996,-0.420438,-0.536974,0.666856,-0.261360,0.445705,483503399.315504
-0.445163,-0.392289,-0.395600,-0.539297,0.655749,-0.267445,0.455658,483503399.315929
-0.386064,-0.395199,-0.359491,-0.541024,0.644424,-0.274081,0.465715,483503399.331226
-0.326994,-0.365033,-0.295687,-0.542006,0.633084,-0.281472,0.475613,483503399.347019
-0.264093,-0.323806,-0.253743,-0.542250,0.621901,-0.289641,0.485090,483503399.347427
-0.216564,-0.268297,-0.222168,-0.541896,0.610954,-0.298552,0.493914,483503399.363078
-0.159016,-0.164039,-0.181001,-0.541277,0.600443,-0.308181,0.501511,483503399.378399
0.039814,-0.032275,-0.125560,-0.540569,0.590403,-0.318320,0.507821,483503399.378809
0.167851,0.024458,-0.055465,-0.539459,0.581355,-0.328607,0.512863,483503399.394530
0.316235,0.072138,0.083115,-0.537810,0.573512,-0.338825,0.516760,483503399.409879
0.446224,0.135599,0.129942,-0.535576,0.566940,-0.348853,0.519653,483503399.410239
0.522365,0.168004,0.135030,-0.532784,0.561065,-0.358071,0.522620,483503399.425751
0.515253,0.248714,0.194706,-0.529692,0.554979,-0.366177,0.526630,483503399.441227
0.638558,0.370038,0.337181,-0.526490,0.548570,-0.372623,0.532007,483503399.441599
0.785733,0.410514,0.583056,-0.523717,0.542121,-0.376316,0.538713,483503399.457120
0.800879,0.289320,0.916883,-0.522207,0.536329,-0.376489,0.545808,483503399.473123
0.588708,0.060782,1.182465,-0.522613,0.531774,-0.373693,0.551766,483503399.473537
0.393218,-0.200655,1.257255,-0.524358,0.529409,-0.369554,0.555161,483503399.488937
0.202561,-0.390971,1.024563,-0.526448,0.529545,-0.365147,0.555970,483503399.504392
-0.125917,-0.307864,0.304891,-0.528270,0.531562,-0.361392,0.554769,483503399.504772
-0.208936,-0.304064,-0.103390,-0.528943,0.535087,-0.359595,0.551899,483503399.520034
-0.329962,-0.275940,-0.354430,-0.528175,0.539133,-0.359676,0.548635,483503399.535861
-0.372395,-0.253229,-0.462445,-0.526575,0.542821,-0.360686,0.545866,483503399.536312
-0.439026,-0.236536,-0.496204,-0.524500,0.545612,-0.362097,0.544144,483503399.552387
-0.557373,-0.167683,-0.419622,-0.522075,0.547329,-0.364771,0.542965,483503399.567412
-0.486913,-0.278497,-0.267110,-0.518387,0.548574,-0.369415,0.542101,483503399.568751
-0.450976,-0.243453,-0.058875,-0.512818,0.549074,-0.376364,0.542113,483503399.582674
-0.346487,0.388507,0.288175,-0.506338,0.547705,-0.385095,0.543454,483503399.598898
-0.122831,1.268945,0.140544,-0.501363,0.544438,-0.391639,0.546664,483503399.599297
0.003155,1.713820,0.057293,-0.498011,0.540811,-0.395906,0.550243,483503399.614649
0.113891,0.767033,0.426332,-0.496298,0.538144,-0.398708,0.552377,483503399.630396
0.278613,-0.088264,0.270999,-0.496381,0.538549,-0.398545,0.552026,483503399.630842
0.454576,-0.224679,-0.201369,-0.497556,0.540952,-0.395952,0.550482,483503399.646798
0.403168,0.124829,-0.447976,-0.497915,0.543967,-0.393037,0.549274,483503399.661513
0.146415,0.247701,-0.480049,-0.496862,0.547101,-0.390994,0.548572,483503399.661897
0.018526,0.150372,-0.070120,-0.494977,0.549196,-0.390296,0.548681,483503399.677336
-0.085226,0.570533,0.307419,-0.492189,0.550794,-0.391844,0.548484,483503399.692952
-0.207938,1.658175,-0.028562,-0.491496,0.550199,-0.393082,0.548816,483503399.693332
-0.233110,2.420380,0.262812,-0.494397,0.548516,-0.390813,0.549515,483503399.708884
0.160988,1.031029,0.871377,-0.497680,0.550143,-0.387626,0.547178,483503399.724419
0.173425,0.007758,0.024193,-0.500516,0.552502,-0.384483,0.544424,483503399.724833
-0.055338,-0.349840,-0.648495,-0.502258,0.553049,-0.382946,0.543347,483503399.740318
-0.050760,-0.313699,-0.406811,-0.502508,0.552774,-0.383728,0.542844,483503399.756121
0.008354,-0.300397,-0.411565,-0.501430,0.552438,-0.386242,0.542399,483503399.756534
-0.037870,-0.297193,-0.629770,-0.500250,0.550766,-0.388358,0.543677,483503399.771763
-0.202942,-0.280996,-0.558050,-0.499467,0.547107,-0.389460,0.547291,483503399.787633
-0.391944,-0.260953,-0.469296,-0.498812,0.542373,-0.390248,0.552018,483503399.788080
-0.448491,-0.201169,-0.244988,-0.498469,0.536885,-0.391128,0.557048,483503399.802657
-0.721054,-0.137933,-1.396171,-0.504875,0.523163,-0.384403,0.568890,483503399.818571
-0.112851,0.248087,1.582683,-0.506936,0.514505,-0.385125,0.574438,483503399.818852
0.020287,0.287120,1.604523,-0.503052,0.516886,-0.393228,0.570210,483503399.834208
0.002757,0.148039,-0.131150,-0.502960,0.515269,-0.396947,0.569176,483503399.850230
0.410802,-0.047575,-0.126727,-0.505538,0.510714,-0.397615,0.570530,483503399.850518
0.419667,-0.052345,0.021963,-0.509097,0.504742,-0.396585,0.573391,483503399.865990
0.368312,-0.090249,0.227858,-0.512627,0.498756,-0.395002,0.576567,483503399.881724
0.319263,-0.115564,0.430016,-0.515854,0.493624,-0.393552,0.579092,483503399.882000
0.247161,-0.138457,0.557548,-0.518996,0.489883,-0.392264,0.580334,483503399.897180
0.168555,-0.161589,0.534418,-0.521918,0.488130,-0.391652,0.579603,483503399.913344
0.155539,-0.159242,0.420346,-0.524524,0.488304,-0.391966,0.576885,483503399.913562
0.201038,-0.161835,0.318318,-0.526942,0.489757,-0.392879,0.572814,483503399.928423
0.298251,-0.185581,0.300385,-0.529539,0.491938,-0.393730,0.567946,483503399.944018
0.385055,-0.227180,0.253071,-0.532521,0.494473,-0.393868,0.562838,483503399.944247
0.424679,-0.266243,0.241554,-0.535610,0.497398,-0.393344,0.557672,483503399.959797
0.223359,-0.348975,0.146595,-0.538174,0.501351,-0.393072,0.551825,483503399.975586
0.107023,-0.362728,0.051100,-0.539968,0.506105,-0.393543,0.545359,483503399.975814
-0.011471,-0.344364,0.067138,-0.540997,0.511519,-0.394835,0.538308,483503399.991289
-0.102432,-0.317417,-0.059966,-0.540993,0.518021,-0.397430,0.530123,483503400.007468
-0.124993,-0.312370,-0.168047,-0.540723,0.524451,-0.400505,0.521695,483503400.007718
-0.194200,-0.332271,-0.117556,-0.540758,0.529957,-0.403326,0.513862,483503400.022749
-0.229649,-0.323190,-0.041613,-0.541309,0.534579,-0.405865,0.506442,483503400.038733
-0.177515,-0.318551,-0.004919,-0.542688,0.538173,-0.407751,0.499599,483503400.039071
-0.090493,-0.331114,0.022977,-0.545304,0.540505,-0.408256,0.493786,483503400.054501
0.012177,-0.360465,0.041514,-0.549163,0.541764,-0.406973,0.489168,483503400.069849
0.112517,-0.381242,0.052261,-0.553550,0.542535,-0.404418,0.485473,483503400.070122
0.152020,-0.304723,0.085116,-0.557789,0.543465,-0.401369,0.482101,483503400.085881
0.124674,-0.274570,-0.016145,-0.561621,0.544943,-0.398220,0.478580,483503400.102979
0.106421,-0.278346,-0.144279,-0.564813,0.547012,-0.395428,0.474764,483503400.103458
0.117404,-0.306616,-0.186829,-0.567567,0.549134,-0.392770,0.471224,483503400.118523
0.119117,-0.285818,-0.086671,-0.570361,0.550850,-0.389679,0.468405,483503400.132951
0.136606,-0.242235,-0.012794,-0.573464,0.552413,-0.385952,0.465853,483503400.133622
0.171880,-0.162539,0.003306,-0.576336,0.554743,-0.382261,0.462573,483503400.148718
0.248899,-0.008229,0.073114,-0.578583,0.558408,-0.378465,0.458460,483503400.164386
0.439897,0.204764,0.320510,-0.579991,0.564002,-0.373957,0.453506,483503400.165492
0.699568,0.437580,0.540339,-0.580124,0.572641,-0.368218,0.447162,483503400.180257
0.707025,0.665642,0.682869,-0.578913,0.584686,-0.360675,0.439221,483503400.195910
0.614011,0.910037,0.735936,-0.575859,0.599927,-0.351338,0.430157,483503400.197063
-0.000522,1.440835,0.579543,-0.572524,0.615546,-0.339200,0.422212,483503400.211828
-0.012765,1.560720,0.468175,-0.569044,0.632210,-0.324835,0.413499,483503400.228378
-0.037055,1.583867,0.433467,-0.566458,0.648059,-0.307511,0.405688,483503400.229004
-0.372272,1.589334,-0.390004,-0.564046,0.661842,-0.291217,0.398761,483503400.243705
-0.286713,1.298038,-0.791224,-0.559012,0.674541,-0.280501,0.392199,483503400.259354
-0.330165,1.022478,-0.454660,-0.552464,0.685774,-0.272710,0.387462,483503400.259740
-0.453827,0.641914,-0.096397,-0.546205,0.695370,-0.266132,0.383790,483503400.275294
-0.560026,0.315997,-0.086266,-0.540585,0.703375,-0.260036,0.381330,483503400.291762
-0.532318,0.098867,-0.078937,-0.535578,0.709858,-0.253624,0.380700,483503400.292156
-0.426548,-0.079457,-0.034294,-0.530925,0.715445,-0.247338,0.380895,483503400.306254
-0.260037,-0.138823,-0.008051,-0.526739,0.720219,-0.241821,0.381251,483503400.322389
0.044027,0.010170,-0.092422,-0.523411,0.723967,-0.237237,0.381616,483503400.322792
0.104174,0.083196,-0.183710,-0.520997,0.726666,-0.234066,0.381748,483503400.338041
0.083078,0.070557,-0.273918,-0.519283,0.728452,-0.232860,0.381418,483503400.353930
0.014965,-0.008016,-0.344244,-0.517759,0.729608,-0.233668,0.380784,483503400.354322
-0.105197,-0.105205,-0.404239,-0.516060,0.730215,-0.236452,0.380209,483503400.369462
-0.228333,-0.201196,-0.427468,-0.514026,0.730282,-0.241024,0.379963,483503400.385752
-0.330806,-0.276720,-0.443730,-0.511626,0.729866,-0.246906,0.380225,483503400.386866
-0.396096,-0.338292,-0.479477,-0.509116,0.728765,-0.253519,0.381353,483503400.401238
-0.459222,-0.388586,-0.508245,-0.506823,0.726615,-0.260377,0.383882,483503400.416926
-0.528155,-0.434847,-0.503429,-0.505024,0.723184,-0.267009,0.388153,483503400.417288
-0.571965,-0.472517,-0.468134,-0.503844,0.718420,-0.273110,0.394239,483503400.432571
-0.623793,-0.502401,-0.426990,-0.503341,0.712325,-0.278738,0.401928,483503400.448372
-0.652424,-0.515739,-0.411904,-0.503462,0.704968,-0.284109,0.410887,483503400.449062
-0.656888,-0.518860,-0.370017,-0.504066,0.696476,-0.289558,0.420706,483503400.464205
-0.646956,-0.519282,-0.350088,-0.504963,0.687037,-0.295319,0.431021,483503400.480018
-0.598068,-0.483809,-0.266961,-0.505964,0.676944,-0.301658,0.441304,483503400.480443
-0.512942,-0.472554,-0.277177,-0.506765,0.666507,-0.308850,0.451186,483503400.495549
-0.415863,-0.472626,-0.315965,-0.507040,0.655789,-0.316978,0.460842,483503400.511123
-0.346436,-0.423826,-0.314467,-0.506840,0.644669,-0.325668,0.470590,483503400.511508
-0.345042,-0.301927,-0.271943,-0.506808,0.633015,-0.334191,0.480368,483503400.527176
-0.381573,-0.147289,-0.239541,-0.507343,0.620817,-0.342626,0.489690,483503400.542591
-0.394052,-0.021292,-0.202181,-0.508257,0.608604,-0.351431,0.497767,483503400.543006
-0.194348,0.126250,0.178813,-0.509049,0.597959,-0.361010,0.502977,483503400.558507
0.071237,0.200234,0.258774,-0.509061,0.590106,-0.371594,0.504529,483503400.573886
0.260549,0.271704,0.181622,-0.507939,0.585028,-0.382425,0.503480,483503400.574374
0.389686,0.246910,0.153808,-0.506027,0.581548,-0.392539,0.501649,483503400.590009
0.492266,0.154837,0.146362,-0.503504,0.578884,-0.401255,0.500371,483503400.605578
0.566999,0.073481,0.172851,-0.500354,0.576391,-0.408257,0.500745,483503400.605962
0.610193,0.031811,0.292981,-0.497798,0.572756,-0.412261,0.504171,483503400.621712
0.612130,-0.028418,0.538597,-0.498009,0.566540,-0.411305,0.511710,483503400.637474
0.516402,-0.119873,0.918352,-0.501697,0.558089,-0.405669,0.521795,483503400.637897
0.399214,-0.214153,1.256800,-0.506721,0.550556,-0.398802,0.530169,483503400.652866
0.308810,-0.266171,1.265804,-0.510736,0.546763,-0.393423,0.534245,483503400.668981
0.168309,-0.263328,0.816732,-0.513263,0.545948,-0.389278,0.535690,483503400.669386
-0.065456,-0.336497,-0.046941,-0.514905,0.546509,-0.385739,0.536103,483503400.684049
-0.092972,-0.396801,-0.338281,-0.516086,0.547539,-0.382476,0.536254,483503400.700507
-0.110384,-0.398823,-0.488374,-0.516433,0.548712,-0.379543,0.536804,483503400.700880
-0.198918,-0.320627,-0.530478,-0.515642,0.550165,-0.377534,0.537494,483503400.715715
-0.279913,-0.303740,-0.546956,-0.513506,0.551633,-0.376848,0.538514,483503400.731705
-0.413147,-0.253708,-0.500589,-0.509769,0.552252,-0.378246,0.540447,483503400.732186
-0.508337,-0.035141,-0.304030,-0.504210,0.551465,-0.382692,0.543328,483503400.747524
-0.549198,0.600638,-0.038900,-0.497307,0.549592,-0.390495,0.546030,483503400.762971
-0.420243,1.348482,0.034800,-0.490269,0.548487,-0.399318,0.547123,483503400.763373
-0.165598,1.583687,0.139759,-0.484757,0.547071,-0.407069,0.547739,483503400.778977
0.271822,1.149430,0.506178,-0.482378,0.545563,-0.411058,0.548365,483503400.794545
0.451348,0.322118,0.323769,-0.483449,0.546498,-0.409823,0.547414,483503400.794925
0.516098,0.210659,-0.224637,-0.485523,0.549081,-0.405568,0.546161,483503400.811280
0.413160,0.214850,-0.242705,-0.486435,0.551479,-0.400510,0.546666,483503400.825742
0.049984,0.352228,0.185165,-0.485731,0.554093,-0.395959,0.547962,483503400.826111
-0.112110,0.828224,0.450082,-0.484972,0.556730,-0.392434,0.548497,483503400.841621
0.077573,1.758429,0.562843,-0.485756,0.558586,-0.388653,0.548608,483503400.857412
0.469651,1.716447,0.785798,-0.488908,0.561398,-0.382344,0.547370,483503400.857769
0.281224,0.379667,0.503790,-0.492719,0.566709,-0.374297,0.544032,483503400.873178
-0.293119,-0.197084,-0.291943,-0.495596,0.573112,-0.367890,0.539059,483503400.889060
-0.465933,-0.430400,-0.748481,-0.496495,0.579122,-0.365108,0.533673,483503400.889473
-0.527860,-0.456310,-0.783026,-0.496085,0.583037,-0.365858,0.529260,483503400.904636
-0.489431,0.065781,-0.964026,-0.495514,0.583509,-0.368674,0.527316,483503400.920313
-0.316884,0.125317,-0.689058,-0.495841,0.580016,-0.371474,0.528896,483503400.920725
-0.206247,0.069679,-0.313896,-0.497128,0.574251,-0.373461,0.532565,483503400.936489
-0.201243,0.115602,0.037951,-0.499156,0.567667,-0.374676,0.536857,483503400.951593
-0.114771,0.235417,0.304986,-0.501693,0.561231,-0.375464,0.540694,483503400.951969
0.014604,0.233410,0.330538,-0.504860,0.555188,-0.375588,0.543890,483503400.967655
-0.606337,-0.010433,0.933336,-0.505574,0.557043,-0.378325,0.539415,483503400.984164
0.309439,0.311935,-0.634320,-0.509143,0.554718,-0.380333,0.537037,483503400.984569
1.094598,-0.262843,-0.426088,-0.518975,0.541363,-0.372487,0.546667,483503400.998867
0.694055,-0.415966,0.351430,-0.527063,0.528461,-0.365070,0.556469,483503401.014474
0.361354,-0.424534,1.000972,-0.530466,0.523047,-0.363469,0.559391,483503401.014905
0.065194,-0.319630,0.249428,-0.533643,0.521250,-0.363240,0.558194,483503401.031039
0.105721,-0.251126,0.052011,-0.537201,0.520229,-0.363395,0.555628,483503401.046375
0.101747,-0.215786,0.008137,-0.540575,0.519426,-0.363933,0.552746,483503401.046771
0.191630,-0.250512,0.125132,-0.543502,0.519064,-0.365216,0.549359,483503401.062544
0.227521,-0.308487,0.187231,-0.545838,0.519753,-0.367111,0.545112,483503401.077673
0.145184,-0.391458,0.193311,-0.547891,0.521234,-0.369164,0.540230,483503401.078048
0.082135,-0.484647,0.182289,-0.549726,0.523341,-0.371264,0.534864,483503401.093422
0.068181,-0.527324,0.140088,-0.551394,0.525733,-0.373261,0.529382,483503401.109455
0.105222,-0.518356,0.095855,-0.552928,0.528237,-0.375089,0.523970,483503401.109857
0.111292,-0.451393,0.025208,-0.554430,0.530498,-0.376423,0.519119,483503401.125182
0.083860,-0.331246,-0.021874,-0.556056,0.532006,-0.377029,0.515384,483503401.140625
0.075131,-0.090595,0.008407,-0.557873,0.532659,-0.376969,0.512783,483503401.141048
0.104685,-0.115572,0.083164,-0.559994,0.532745,-0.376191,0.510950,483503401.156593
0.100704,-0.229608,0.148748,-0.562377,0.533034,-0.374790,0.509058,483503401.172298
0.067040,-0.371710,0.091366,-0.564969,0.534160,-0.373128,0.506220,483503401.173183
0.058166,-0.485373,-0.038389,-0.567685,0.535881,-0.371325,0.502676,483503401.187763
0.097711,-0.516293,-0.110881,-0.570700,0.537629,-0.369155,0.498980,483503401.203901
0.171035,-0.496268,-0.100694,-0.574076,0.539095,-0.366341,0.495589,483503401.204509
0.223514,-0.441695,0.012478,-0.577683,0.540640,-0.363019,0.492147,483503401.219764
0.281909,-0.307835,0.179025,-0.581260,0.543116,-0.359742,0.487593,483503401.234187
0.367330,-0.098559,0.304665,-0.584074,0.547741,-0.356828,0.481156,483503401.234415
0.492346,0.190626,0.462849,-0.585540,0.555627,-0.354272,0.472136,483503401.250446
0.865342,0.798265,0.375065,-0.585340,0.567068,-0.351071,0.461041,483503401.265952
0.729707,1.006456,0.248447,-0.583025,0.581638,-0.346227,0.449339,483503401.266221
0.129445,1.169631,0.154717,-0.578822,0.598248,-0.338298,0.438884,483503401.282101
-0.384245,1.371650,0.189851,-0.575013,0.614054,-0.326423,0.430982,483503401.298085
-0.372178,1.414585,0.349076,-0.572005,0.628442,-0.311588,0.425186,483503401.298473
-0.540488,1.273253,0.145007,-0.569768,0.641495,-0.295012,0.420495,483503401.313755
-0.419222,1.124276,-0.291415,-0.566879,0.653267,-0.280114,0.416445,483503401.329249
-0.187688,1.036044,-0.641027,-0.561323,0.664778,-0.269226,0.412920,483503401.329706
-0.133327,0.952070,-0.450903,-0.553831,0.676039,-0.260683,0.410227,483503401.345255
-0.519541,0.748680,-0.340539,-0.547198,0.684977,-0.253166,0.409008,483503401.360923
-0.629026,0.358981,-0.129215,-0.542768,0.691201,-0.245734,0.408973,483503401.361297
-0.556984,0.104556,0.010411,-0.539285,0.695917,-0.237577,0.410400,483503401.376624
-0.413195,-0.039175,0.148754,-0.535898,0.699727,-0.229498,0.412949,483503401.393081
-0.230913,0.031775,0.114691,-0.532548,0.703041,-0.223166,0.415117,483503401.393492
-0.067262,0.076735,0.039533,-0.529370,0.705878,-0.219323,0.416414,483503401.408257
0.024653,0.070095,-0.058349,-0.526541,0.708103,-0.218082,0.416875,483503401.423794
0.034816,-0.038354,-0.204681,-0.524152,0.709717,-0.219266,0.416519,483503401.424163
-0.016811,-0.167069,-0.319334,-0.522196,0.710798,-0.222524,0.415404,483503401.439470
-0.108666,-0.263326,-0.430597,-0.520360,0.711408,-0.227563,0.413932,483503401.455259
-0.238977,-0.309391,-0.470679,-0.518308,0.711532,-0.234123,0.412633,483503401.455652
-0.338881,-0.344351,-0.474059,-0.515962,0.711047,-0.241903,0.411921,483503401.471308
-0.403680,-0.365534,-0.458359,-0.513726,0.709531,-0.250181,0.412383,483503401.486600
-0.452494,-0.368160,-0.454894,-0.512102,0.706435,-0.258076,0.414847,483503401.487181
-0.615100,-0.372429,-0.462472,-0.511551,0.701387,-0.265075,0.419651,483503401.502590
-0.671111,-0.396787,-0.467481,-0.512121,0.694417,-0.270946,0.426738,483503401.518180
-0.723058,-0.416173,-0.470064,-0.513659,0.685718,-0.275870,0.435706,483503401.518550
-0.736611,-0.431405,-0.431437,-0.515949,0.675685,-0.280037,0.445900,483503401.534020
-0.728932,-0.419608,-0.375659,-0.518675,0.664830,-0.283871,0.456503,483503401.550147
-0.687600,-0.420465,-0.343553,-0.521336,0.653629,-0.287899,0.467004,483503401.550591
-0.586244,-0.455941,-0.332010,-0.523357,0.642490,-0.292707,0.477103,483503401.565017
-0.424934,-0.535335,-0.352725,-0.524378,0.631437,-0.298834,0.486840,483503401.581526
-0.345039,-0.544888,-0.373485,-0.524628,0.619951,-0.305850,0.496872,483503401.582048
-0.380164,-0.447323,-0.296467,-0.524594,0.607829,-0.313456,0.507040,483503401.596976
-0.434132,-0.331417,-0.182576,-0.524556,0.595615,-0.321736,0.516305,483503401.612925
-0.285992,-0.170878,0.033476,-0.524743,0.583614,-0.330691,0.524102,483503401.613313
-0.137818,-0.082908,0.255949,-0.524534,0.572925,-0.340487,0.529801,483503401.628449
-0.047419,0.065856,0.374286,-0.523268,0.564909,-0.351755,0.532294,483503401.643989
0.094049,0.233430,0.232989,-0.521028,0.559301,-0.364293,0.531980,483503401.644407
0.293273,0.305827,0.190138,-0.518732,0.554769,-0.376668,0.530349,483503401.659709
0.558433,0.286537,0.206949,-0.516610,0.550748,-0.387225,0.529007,483503401.675626
0.812020,0.224223,0.245447,-0.514045,0.547312,-0.395280,0.529114,483503401.676129
1.038507,0.111739,0.250190,-0.511210,0.543747,-0.399691,0.532214,483503401.691360
1.087529,-0.033474,0.501871,-0.510555,0.538356,-0.397521,0.539892,483503401.707186
0.851883,-0.175879,0.919408,-0.514010,0.530507,-0.388270,0.551001,483503401.707552
0.537721,-0.286352,1.271417,-0.520152,0.522298,-0.375563,0.561782,483503401.722877
0.128761,-0.375018,0.932996,-0.526233,0.516413,-0.363538,0.569418,483503401.738537
-0.063808,-0.424667,0.378135,-0.530595,0.514193,-0.354560,0.573029,483503401.738924
-0.257750,-0.410884,-0.235371,-0.533539,0.514861,-0.347489,0.574026,483503401.754932
-0.445198,-0.146508,-0.637122,-0.535304,0.516347,-0.341597,0.574584,483503401.770226
-0.654290,0.400848,-0.842852,-0.533845,0.517574,-0.340107,0.575721,483503401.770606
-0.751451,1.069792,-0.883657,-0.528157,0.519515,-0.344251,0.576754,483503401.785748
-0.959636,1.516552,-0.718826,-0.518979,0.523679,-0.355345,0.574588,483503401.802400
-0.588171,1.380262,-0.180512,-0.509090,0.527378,-0.370690,0.570341,483503401.802831
0.114356,0.763824,0.530135,-0.502504,0.530403,-0.382629,0.565472,483503401.817201
0.811212,0.389240,0.677186,-0.502657,0.531700,-0.384183,0.563058,483503401.833162
1.282316,0.480283,0.426723,-0.505027,0.532806,-0.378955,0.563434,483503401.833556
0.109940,0.169230,0.016107,-0.503404,0.537579,-0.375580,0.562612,483503401.848694
-0.266778,0.083491,0.299720,-0.499829,0.543706,-0.374752,0.560460,483503401.864407
-0.228930,0.792812,0.636370,-0.496993,0.548100,-0.373906,0.559267,483503401.864765
0.082426,1.945015,0.678015,-0.497404,0.549373,-0.370448,0.559952,483503401.880206
0.327762,1.721636,0.927028,-0.501661,0.550783,-0.362803,0.559775,483503401.895822
-0.186184,0.435036,0.038488,-0.505577,0.556361,-0.356034,0.555063,483503401.896256
-0.471414,-0.264605,-0.752174,-0.507523,0.562507,-0.352790,0.549132,483503401.911679
-0.440796,-0.579668,-0.770729,-0.507183,0.567781,-0.353047,0.543828,483503401.927838
-0.379727,-0.540530,-0.701948,-0.505491,0.571316,-0.356046,0.539730,483503401.928456
-0.355805,-0.239673,-0.703758,-0.503891,0.571605,-0.360268,0.538115,483503401.943080
-0.233720,-0.036974,-0.561070,-0.502986,0.568730,-0.364445,0.539195,483503401.958766
-0.013533,0.033540,-0.193686,-0.502958,0.564319,-0.367546,0.541745,483503401.959217
0.055018,0.059636,0.240986,-0.504125,0.559186,-0.368916,0.545041,483503401.975048
0.056148,0.078560,0.289734,-0.506554,0.553823,-0.368636,0.548444,483503401.990137
0.106843,0.042325,0.246325,-0.510080,0.548493,-0.366926,0.551669,483503401.990542
0.153394,-0.111607,0.240357,-0.514262,0.543383,-0.364285,0.554587,483503402.006146
0.140230,-0.281584,0.201463,-0.518487,0.539176,-0.361533,0.556557,483503402.021681
0.157127,-0.370489,0.145489,-0.522082,0.536039,-0.359434,0.557584,483503402.022091
0.164629,-0.383119,0.157873,-0.525118,0.533612,-0.358077,0.557934,483503402.037541
0.159658,-0.385327,0.197112,-0.528444,0.531536,-0.356581,0.557733,483503402.053339
0.241998,-0.538308,-0.103227,-0.535763,0.527018,-0.349292,0.559648,483503402.053867
0.125747,-0.187820,0.184972,-0.538834,0.523736,-0.348764,0.560109,483503402.069194
0.206181,-0.159667,0.907561,-0.536674,0.527241,-0.355754,0.554470,483503402.084628
0.190709,-0.427953,-0.170698,-0.537043,0.530270,-0.359696,0.548650,483503402.084998
0.207387,-0.437446,0.007700,-0.539204,0.531324,-0.361115,0.544563,483503402.100766
0.068416,-0.399994,0.172061,-0.541601,0.532113,-0.361846,0.540917,483503402.116441
-0.047048,-0.374655,0.226428,-0.543711,0.533622,-0.362893,0.536595,483503402.116998
-0.066185,-0.393448,0.173718,-0.545481,0.536151,-0.364472,0.531179,483503402.131769
-0.068048,-0.413061,0.099347,-0.547264,0.539179,-0.365796,0.525340,483503402.146921
-0.090227,-0.413864,0.063889,-0.549149,0.542289,-0.366508,0.519644,483503402.147177
-0.110918,-0.385999,0.002715,-0.551093,0.545402,-0.366652,0.514198,483503402.163392
-0.151251,-0.370858,-0.075829,-0.553011,0.548497,-0.366534,0.508903,483503402.179063
-0.148342,-0.380288,-0.135686,-0.554936,0.551336,-0.366363,0.503838,483503402.179443
-0.114175,-0.388317,-0.131430,-0.557298,0.553400,-0.365707,0.499426,483503402.195148
0.124348,-0.351556,-0.106889,-0.560313,0.554556,-0.364123,0.495914,483503402.210437
0.247710,-0.244685,-0.028033,-0.564324,0.554795,-0.360993,0.493380,483503402.210864
0.416335,0.001089,0.145435,-0.569537,0.554458,-0.355732,0.491588,483503402.226382
0.573806,0.375812,0.421563,-0.575070,0.555116,-0.348630,0.489488,483503402.242067
0.750770,0.687070,0.581687,-0.579431,0.558747,-0.340889,0.485650,483503402.242440
0.897542,0.899040,0.641346,-0.581234,0.566954,-0.333373,0.479159,483503402.257801
0.851870,1.085240,0.654462,-0.580353,0.579864,-0.324838,0.470562,483503402.273722
0.429714,1.301351,0.548086,-0.577603,0.596108,-0.314144,0.460808,483503402.274591
-0.345620,1.522047,0.191910,-0.575084,0.611772,-0.300881,0.452199,483503402.289500
-0.368268,1.519305,0.370931,-0.572069,0.626808,-0.287256,0.444222,483503402.304895
-0.334895,1.401200,0.230149,-0.568273,0.641407,-0.274601,0.436185,483503402.305339
-0.391141,1.083295,-0.506088,-0.564005,0.655266,-0.263125,0.428125,483503402.320785
-0.382311,0.866383,-0.540513,-0.559528,0.667090,-0.254188,0.421080,483503402.336543
-0.388827,0.634988,-0.296763,-0.555084,0.676842,-0.247141,0.415558,483503402.337169
-0.311757,0.311213,-0.088655,-0.551674,0.684353,-0.241657,0.410997,483503402.351993
-0.403262,0.040040,0.030749,-0.549205,0.690082,-0.236194,0.407889,483503402.367860
-0.531589,-0.098960,0.029294,-0.546977,0.694503,-0.230681,0.406531,483503402.368223
-0.492016,-0.067630,0.039759,-0.544720,0.698032,-0.226309,0.405975,483503402.383987
-0.401737,-0.013871,-0.024560,-0.542681,0.700846,-0.223820,0.405238,483503402.399323
-0.349464,-0.037562,-0.175869,-0.540976,0.702717,-0.223094,0.404676,483503402.399858
-0.310449,-0.134517,-0.325981,-0.539511,0.703532,-0.223954,0.404740,483503402.415340
-0.283848,-0.244549,-0.404388,-0.538257,0.703188,-0.226029,0.405852,483503402.430740
-0.290764,-0.446162,-0.472705,-0.537108,0.701762,-0.229108,0.408112,483503402.431251
-0.330617,-0.479675,-0.474342,-0.535931,0.699398,-0.233183,0.411397,483503402.446769
-0.376245,-0.488675,-0.487404,-0.534762,0.696096,-0.238218,0.415611,483503402.462276
-0.420472,-0.513629,-0.498757,-0.533608,0.691701,-0.243968,0.421060,483503402.462803
-0.471347,-0.534820,-0.487956,-0.532535,0.686059,-0.250038,0.428032,483503402.478157
-0.513608,-0.527625,-0.473273,-0.531778,0.679047,-0.256181,0.436439,483503402.493803
-0.568849,-0.517936,-0.474578,-0.531715,0.670409,-0.262188,0.446193,483503402.494177
-0.592177,-0.518509,-0.450737,-0.532457,0.660244,-0.268074,0.456841,483503402.509796
-0.593191,-0.500299,-0.419270,-0.533750,0.648951,-0.273924,0.467909,483503402.525392
-0.618975,-0.482479,-0.396188,-0.535356,0.636806,-0.279814,0.479141,483503402.525757
-0.613563,-0.462708,-0.353482,-0.536955,0.624237,-0.285814,0.490222,483503402.541027
-0.512312,-0.460168,-0.277327,-0.538074,0.611958,-0.291926,0.500762,483503402.557254
-0.382192,-0.346658,-0.212134,-0.538659,0.600143,-0.298626,0.510390,483503402.557671
-0.201564,-0.246853,-0.057854,-0.538527,0.588809,-0.307373,0.518473,483503402.572269
0.286375,-0.233213,-0.383977,-0.537002,0.578441,-0.318215,0.525142,483503402.587441
0.786588,0.244071,-1.000333,-0.537713,0.562983,-0.324432,0.537270,483503402.587648
-0.279821,-0.737610,0.330520,-0.540447,0.546297,-0.325068,0.551187,483503402.603604
-0.270309,-0.488878,0.675670,-0.534174,0.540949,-0.330565,0.559249,483503402.619882
-1.174276,0.086796,0.786086,-0.527088,0.539278,-0.344023,0.559470,483503402.620416
-0.268276,-0.002995,0.561653,-0.520895,0.538754,-0.358710,0.556542,483503402.635984
0.093350,0.071958,0.416934,-0.515120,0.539211,-0.372766,0.552221,483503402.651308
0.395996,0.136105,0.302244,-0.509288,0.540330,-0.385768,0.547587,483503402.651740
0.705850,0.190640,0.200986,-0.503766,0.541200,-0.395815,0.544658,483503402.666929
0.922158,0.165020,0.335123,-0.500030,0.540218,-0.400763,0.545457,483503402.682673
0.766741,0.028855,0.798532,-0.500212,0.535737,-0.398567,0.551287,483503402.683208
0.521394,-0.147268,1.179141,-0.504815,0.528729,-0.389555,0.560228,483503402.699398
0.244087,-0.308966,1.260984,-0.510614,0.522921,-0.378614,0.567872,483503402.713841
0.053833,-0.367758,1.025623,-0.515125,0.520693,-0.369631,0.571750,483503402.714216
-0.089920,-0.414451,0.471382,-0.518187,0.521900,-0.362601,0.572384,483503402.729854
-0.385343,-0.418235,-0.084314,-0.519851,0.525053,-0.357811,0.571004,483503402.745532
-0.668321,-0.028166,-0.525919,-0.518710,0.528452,-0.357596,0.569037,483503402.745900
-0.764244,0.867980,-0.955793,-0.513609,0.531486,-0.362707,0.567602,483503402.761248
-0.814378,1.723553,-0.948407,-0.504527,0.536137,-0.373437,0.564406,483503402.777096
-0.744263,1.792143,-0.712006,-0.493974,0.540519,-0.388112,0.559641,483503402.777471
0.413149,0.537321,0.346912,-0.487456,0.543337,-0.398843,0.555065,483503402.793082
1.090119,0.453032,0.208446,-0.486873,0.544507,-0.400890,0.552950,483503402.808541
1.359413,0.322633,0.241447,-0.489087,0.543954,-0.396147,0.554956,483503402.808961
0.783657,0.435801,0.441056,-0.490429,0.543674,-0.388780,0.559239,483503402.824203
0.086899,1.280866,0.704697,-0.490078,0.544018,-0.382912,0.563246,483503402.839898
-0.215115,2.348847,1.064316,-0.490419,0.545441,-0.378520,0.564540,483503402.840323
0.114493,1.677988,1.062044,-0.493405,0.550300,-0.372449,0.561251,483503402.855624
-0.002532,0.321253,0.030348,-0.497159,0.558290,-0.365443,0.554614,483503402.871796
-0.386157,-0.095950,-0.670865,-0.499460,0.567426,-0.361303,0.545919,483503402.872155
-0.508376,-0.348386,-0.846957,-0.499743,0.575949,-0.360843,0.536966,483503402.887163
-0.541602,-0.531597,-0.967541,-0.498859,0.581284,-0.363039,0.530519,483503402.902840
-0.720417,-0.346783,-1.180234,-0.497512,0.581907,-0.366869,0.528463,483503402.903253
-0.500010,-0.303981,-0.637088,-0.496491,0.578161,-0.370397,0.531067,483503402.918892
-0.310606,-0.343296,-0.051158,-0.496133,0.572700,-0.373145,0.535379,483503402.934300
-0.249861,-0.190339,0.283648,-0.497254,0.567038,-0.373915,0.539810,483503402.934687
-0.172271,0.197492,0.194071,-0.500361,0.560605,-0.372373,0.544701,483503402.949966
0.044738,0.573070,0.031480,-0.504632,0.552889,-0.369169,0.550794,483503402.965684
0.102496,0.479754,0.023292,-0.509722,0.543852,-0.365143,0.557744,483503402.966081
0.179962,0.159458,0.130335,-0.515186,0.534854,-0.360900,0.564150,483503402.981685
0.243426,-0.115696,0.256462,-0.520408,0.527032,-0.357109,0.569109,483503402.997941
0.299911,-0.222556,0.304962,-0.525214,0.520359,-0.354013,0.572758,483503402.998368
0.340586,-0.182779,0.285064,-0.529516,0.514478,-0.351853,0.575434,483503403.013076
0.242290,-0.147428,0.148120,-0.533188,0.509316,-0.350962,0.577177,483503403.028712
0.191699,-0.151327,0.086083,-0.536315,0.504721,-0.351191,0.578176,483503403.029087
0.155830,-0.203519,0.085382,-0.539357,0.500410,-0.351922,0.578649,483503403.044757
0.199073,-0.298353,0.155633,-0.542383,0.496484,-0.353038,0.578523,483503403.061090
0.306810,-0.397154,0.207688,-0.545247,0.493334,-0.354249,0.577785,483503403.061516
0.382670,-0.432991,0.271377,-0.547925,0.491073,-0.355064,0.576676,483503403.075887
0.394466,-0.406372,0.296288,-0.550547,0.489734,-0.355204,0.575229,483503403.091592
0.351704,-0.378699,0.254722,-0.553006,0.489286,-0.354814,0.573490,483503403.091972
0.244606,-0.317093,0.290941,-0.555174,0.490006,-0.354487,0.570978,483503403.107386
0.097474,-0.283115,0.285248,-0.556835,0.492351,-0.354968,0.567030,483503403.123103
0.005224,-0.295303,0.141255,-0.558236,0.495632,-0.356094,0.562066,483503403.123491
-0.009582,-0.292059,0.013751,-0.559681,0.498537,-0.357194,0.557343,483503403.139248
-0.051322,-0.273760,0.075400,-0.561312,0.500561,-0.357958,0.553384,483503403.154528
0.021553,-0.306977,0.142487,-0.563339,0.502155,-0.358276,0.549661,483503403.154957
0.068919,-0.374080,0.202297,-0.565800,0.504067,-0.357992,0.545553,483503403.170356
0.032789,-0.432771,0.162132,-0.568393,0.506775,-0.357375,0.540733,483503403.186161
0.017880,-0.450005,0.081948,-0.571171,0.509837,-0.356375,0.535562,483503403.186543
0.020303,-0.452107,-0.013628,-0.574238,0.512964,-0.354808,0.530311,483503403.201679
-0.009055,-0.436829,-0.128210,-0.577044,0.516091,-0.353350,0.525179,483503403.218657
-0.025801,-0.376390,-0.104282,-0.579915,0.518484,-0.351729,0.520730,483503403.219365
-0.006523,-0.305670,-0.033955,-0.583218,0.520023,-0.349590,0.516933,483503403.233639
0.037519,-0.222921,0.009278,-0.586849,0.521413,-0.347236,0.512994,483503403.249053
0.148913,-0.144269,0.063544,-0.590528,0.523675,-0.344686,0.508166,483503403.249454
0.702419,0.188554,0.578464,-0.594101,0.527793,-0.341073,0.502143,483503403.264740
1.100612,0.461814,0.778014,-0.596237,0.535778,-0.336898,0.493907,483503403.280726
1.125459,0.809354,0.742941,-0.595451,0.549398,-0.332597,0.482680,483503403.281406
0.758053,1.081704,0.594883,-0.591692,0.567681,-0.327122,0.469713,483503403.296253
0.121528,1.337550,0.386389,-0.586891,0.587609,-0.318050,0.457296,483503403.311966
-0.403941,1.558212,0.094281,-0.583245,0.605404,-0.304934,0.447578,483503403.312374
-0.426731,1.578932,0.062260,-0.580583,0.620986,-0.290074,0.439496,483503403.327705
-0.583206,1.464028,-0.040429,-0.577606,0.635814,-0.276859,0.430651,483503403.343717
-0.285113,1.135977,-0.342465,-0.572694,0.650833,-0.267589,0.420516,483503403.344096
-0.140896,0.899716,-0.665057,-0.567210,0.664124,-0.259336,0.412258,483503403.359305
-0.191180,0.686313,-0.646973,-0.561398,0.675411,-0.252552,0.406042,483503403.374943
-0.318140,0.320153,-0.219724,-0.555941,0.684511,-0.246491,0.402017,483503403.375462
-0.439809,0.229658,0.006806,-0.551862,0.691051,-0.239732,0.400530,483503403.390590
-0.495752,0.149535,0.137410,-0.548800,0.696043,-0.231935,0.400685,483503403.405780
-0.479166,0.158557,0.146316,-0.546063,0.700393,-0.224646,0.400998,483503403.406128
-0.428164,0.213447,0.071157,-0.543756,0.704071,-0.219240,0.400683,483503403.421860
-0.354447,0.155469,-0.051647,-0.542355,0.706599,-0.216074,0.399850,483503403.437807
-0.231760,0.024652,-0.167213,-0.541608,0.708126,-0.215140,0.398665,483503403.438302
-0.096432,-0.114270,-0.281540,-0.541025,0.709037,-0.216424,0.397140,483503403.453676
-0.028403,-0.276213,-0.372602,-0.540352,0.709489,-0.219768,0.395407,483503403.469434
-0.039975,-0.383848,-0.436363,-0.539341,0.709585,-0.224921,0.393714,483503403.469856
-0.127432,-0.452234,-0.493903,-0.537714,0.709410,-0.231501,0.392438,483503403.485011
-0.289355,-0.508458,-0.542645,-0.535545,0.708724,-0.239137,0.392065,483503403.500913
-0.337895,-0.523341,-0.545716,-0.533039,0.707115,-0.247244,0.393356,483503403.501462
-0.382406,-0.537589,-0.535655,-0.530503,0.704256,-0.255308,0.396746,483503403.516893
-0.456068,-0.555621,-0.542613,-0.528302,0.699972,-0.262956,0.402232,483503403.532168
-0.544044,-0.567462,-0.570134,-0.526772,0.694019,-0.270054,0.409781,483503403.532588
-0.635441,-0.555300,-0.558757,-0.526126,0.686283,-0.276633,0.419144,483503403.547961
-0.672535,-0.529346,-0.540109,-0.526294,0.676884,-0.282760,0.429988,483503403.563669
-0.673109,-0.472689,-0.502795,-0.527036,0.665988,-0.288868,0.441869,483503403.564106
-0.639211,-0.416232,-0.461267,-0.527954,0.653921,-0.295340,0.454340,483503403.579512
-0.554313,-0.364079,-0.390745,-0.528593,0.641059,-0.302283,0.467180,483503403.595096
-0.457168,-0.321356,-0.352257,-0.528555,0.627624,-0.309656,0.480448,483503403.595660
-0.333320,-0.074921,-0.230020,-0.527918,0.613574,-0.317455,0.494015,483503403.610907
-0.236770,0.038004,-0.121117,-0.526916,0.599235,-0.325538,0.507249,483503403.626728
-0.086158,0.038161,0.044010,-0.525285,0.585402,-0.333920,0.519497,483503403.627132
0.007090,-0.032116,0.299088,-0.522877,0.573214,-0.342414,0.529885,483503403.642442
-0.001332,-0.035021,0.372625,-0.520150,0.563194,-0.350661,0.537861,483503403.658036
0.034524,-0.019047,0.359626,-0.517252,0.555266,-0.358910,0.543427,483503403.658684
0.113227,-0.040090,0.317599,-0.514032,0.549477,-0.367319,0.546739,483503403.674133
0.198929,-0.101095,0.302118,-0.510747,0.545412,-0.375303,0.548462,483503403.689935
0.301769,-0.142153,0.285188,-0.507742,0.542282,-0.381932,0.549778,483503403.690305
0.451458,-0.134957,0.325415,-0.505357,0.539194,-0.386252,0.551990,483503403.705306
0.521398,-0.066915,0.398086,-0.504416,0.534883,-0.387472,0.556174,483503403.721574
0.581287,-0.056351,0.500546,-0.505677,0.528377,-0.384832,0.563039,483503403.721987
0.398528,-0.209213,0.872179,-0.509219,0.520172,-0.379014,0.571371,483503403.736690
0.263056,-0.250008,0.924858,-0.513744,0.512577,-0.372442,0.578462,483503403.752498
0.150449,-0.285571,0.747331,-0.517753,0.507960,-0.367315,0.582226,483503403.752876
0.012255,-0.353746,0.331833,-0.520539,0.507096,-0.363762,0.582727,483503403.768126
-0.181052,-0.383399,-0.147082,-0.522471,0.508365,-0.360579,0.581869,483503403.783879
-0.314098,-0.401680,-0.467989,-0.522940,0.509967,-0.358520,0.581318,483503403.784244
-0.528414,-0.254434,-0.617484,-0.520530,0.511310,-0.359788,0.581518,483503403.799261
-0.567838,0.063698,-0.459939,-0.514801,0.511941,-0.365510,0.582494,483503403.816511
-0.591696,0.711167,-0.378691,-0.506556,0.513073,-0.375011,0.582686,483503403.816934
-0.599389,1.453716,-0.429336,-0.496357,0.515785,-0.387878,0.580643,483503403.830649
-0.525519,1.644115,-0.206649,-0.487446,0.515778,-0.400632,0.579537,483503403.846180
0.890980,0.666934,0.642213,-0.485616,0.512078,-0.405988,0.580627,483503403.847486
1.339187,0.470242,0.216492,-0.489871,0.507340,-0.401813,0.584105,483503403.862505
0.610317,0.360553,0.145183,-0.492088,0.505465,-0.396210,0.587684,483503403.878670
0.188977,0.155054,0.207741,-0.490601,0.507241,-0.394035,0.588858,483503403.879131
0.004528,0.311464,0.308157,-0.488316,0.510047,-0.392769,0.589178,483503403.895074
0.066376,1.373254,0.433235,-0.486883,0.510713,-0.391266,0.590786,483503403.909073
0.269807,2.810442,0.374916,-0.488026,0.509359,-0.388019,0.593149,483503403.909350
0.536202,2.056168,0.780288,-0.491432,0.510483,-0.383051,0.592599,483503403.924960
0.151611,0.283578,0.599562,-0.493930,0.516792,-0.379084,0.587584,483503403.940823
-0.491518,-0.273435,-0.329374,-0.495016,0.524215,-0.377987,0.580760,483503403.941136
-0.581209,-0.663751,-0.869427,-0.494728,0.529020,-0.379192,0.575843,483503403.957380
-0.505143,-0.502013,-1.102122,-0.493666,0.529211,-0.381385,0.575131,483503403.972849
-0.501675,-0.226819,-0.980414,-0.493014,0.523843,-0.383007,0.579510,483503403.973446
-0.338974,-0.148326,-0.613543,-0.493372,0.514848,-0.383361,0.586983,483503403.988066
-0.361125,-0.200432,-0.269875,-0.494059,0.505000,-0.382248,0.595623,483503404.003835
-0.574479,-0.092603,0.260451,-0.495212,0.495622,-0.380227,0.603781,483503404.004103
-0.543700,0.196802,0.486365,-0.497266,0.487107,-0.378092,0.610327,483503404.019487
-0.257441,0.383658,0.315757,-0.499759,0.478329,-0.376127,0.616417,483503404.035277
-0.067910,0.254436,0.281415,-0.502491,0.469278,-0.374538,0.622095,483503404.035535
0.052732,0.060833,0.320565,-0.505872,0.460601,-0.372890,0.626813,483503404.051222
0.172047,-0.087741,0.296811,-0.509716,0.452807,-0.371134,0.630408,483503404.066816
0.243100,-0.135136,0.219583,-0.513779,0.445574,-0.369315,0.633326,483503404.067089
0.253980,-0.154563,0.091447,-0.517834,0.438551,-0.367720,0.635848,483503404.082435
0.235222,-0.128042,0.092750,-0.521515,0.431811,-0.366584,0.638104,483503404.097932
0.218962,-0.108957,0.131430,-0.524686,0.425271,-0.366045,0.640203,483503404.098153
0.217081,-0.079397,0.203848,-0.527179,0.419066,-0.366320,0.642087,483503404.113647
0.202976,-0.038470,0.256240,-0.529050,0.413794,-0.367565,0.643255,483503404.129570
0.222538,-0.035373,0.251941,-0.530424,0.409958,-0.369863,0.643262,483503404.129794
0.273672,-0.070286,0.203787,-0.531393,0.407448,-0.373028,0.642229,483503404.145923
0.329899,-0.096345,0.171521,-0.532215,0.405814,-0.376469,0.640572,483503404.161688
0.386474,-0.125416,0.160737,-0.533088,0.404675,-0.379745,0.638631,483503404.162069
0.400126,-0.172288,0.183569,-0.534254,0.403642,-0.382561,0.636627,483503404.177319
0.370018,-0.199318,0.241831,-0.535741,0.402715,-0.384911,0.634543,483503404.193057
0.323749,-0.222489,0.334218,-0.537471,0.402071,-0.387019,0.632203,483503404.193442
0.086009,-0.211780,0.411906,-0.539593,0.401739,-0.388910,0.629439,483503404.208964
0.017505,-0.188689,0.358233,-0.542211,0.401562,-0.390797,0.626126,483503404.225396
-0.007165,-0.178259,0.282177,-0.545084,0.401580,-0.392894,0.622295,483503404.226308
-0.010308,-0.185764,0.183129,-0.547930,0.401765,-0.395451,0.618041,483503404.240371
0.032421,-0.188650,0.068670,-0.550810,0.401580,-0.398261,0.613784,483503404.256218
0.099457,-0.202963,0.002581,-0.554042,0.400525,-0.400776,0.609914,483503404.256617
0.160708,-0.222700,0.007807,-0.557680,0.398591,-0.402635,0.606632,483503404.271777
0.239621,-0.234831,0.026457,-0.561604,0.396125,-0.403682,0.603927,483503404.287714
0.323631,-0.224022,0.035237,-0.565408,0.393523,-0.404426,0.601576,483503404.288106
0.413070,-0.224459,0.038210,-0.568732,0.391160,-0.405115,0.599516,483503404.303449
0.455198,-0.233791,0.046331,-0.571479,0.389177,-0.405925,0.597643,483503404.318703
0.428306,-0.264168,0.131038,-0.573703,0.387890,-0.407177,0.595494,483503404.319162
0.405013,-0.272193,0.116788,-0.575429,0.387397,-0.408995,0.592898,483503404.334908
0.394772,-0.286014,0.092782,-0.577032,0.387280,-0.410931,0.590071,483503404.350420
0.373839,-0.281097,0.117586,-0.578791,0.387230,-0.412667,0.587162,483503404.350804
0.341273,-0.283294,0.168863,-0.580684,0.387150,-0.414274,0.584207,483503404.365949
0.294126,-0.247154,0.284069,-0.582651,0.387168,-0.415957,0.581032,483503404.382293
0.275387,-0.143185,0.442738,-0.584745,0.387917,-0.417988,0.576957,483503404.383237
0.272287,-0.069946,0.518256,-0.586613,0.390565,-0.421088,0.570990,483503404.397839
0.375568,0.030254,0.600768,-0.588001,0.395849,-0.425307,0.562736,483503404.413288
0.567732,0.205594,0.749840,-0.588292,0.403680,-0.429686,0.553467,483503404.413657
0.711825,0.522319,0.596745,-0.587376,0.413551,-0.432771,0.544679,483503404.429110
0.477040,0.677552,0.484669,-0.585761,0.425816,-0.434288,0.535685,483503404.444799
0.182011,0.591417,0.416987,-0.583273,0.441378,-0.434411,0.525610,483503404.445314
0.113077,0.683424,0.331119,-0.581132,0.458439,-0.431102,0.516014,483503404.460591
0.017112,0.715574,0.021084,-0.579650,0.476129,-0.424357,0.507177,483503404.476303
-0.127447,0.567590,-0.234752,-0.578909,0.493262,-0.414909,0.499407,483503404.476723
-0.221799,0.544689,-0.394605,-0.578902,0.509739,-0.403279,0.492346,483503404.492276
-0.616039,0.721140,-0.574919,-0.580668,0.523894,-0.389327,0.486605,483503404.508393
-0.553584,0.961622,-0.471501,-0.583166,0.535840,-0.374945,0.481881,483503404.508906
-0.425085,1.175838,-0.544016,-0.585142,0.545504,-0.361118,0.479195,483503404.524150
-0.289223,1.162875,-0.410274,-0.585518,0.553752,-0.348242,0.478805,483503404.538486
-0.217271,1.040159,-0.144176,-0.584479,0.561451,-0.335977,0.479871,483503404.538705
-0.050172,0.805553,0.316313,-0.582776,0.569150,-0.323110,0.481705,483503404.554381
-0.006883,0.729049,0.178768,-0.580899,0.577213,-0.308468,0.483973,483503404.570131
0.429195,0.530442,-0.647411,-0.575393,0.586782,-0.297665,0.485804,483503404.570460
0.945911,0.355360,-0.491700,-0.561464,0.600189,-0.293025,0.488536,483503404.585748
0.321179,0.360080,-0.040227,-0.547300,0.613134,-0.286485,0.492398,483503404.602298
0.078906,0.242008,-0.009812,-0.535557,0.624780,-0.279579,0.494636,483503404.602720
-0.061444,0.150705,-0.195024,-0.524814,0.635693,-0.274504,0.495088,483503404.618239
-0.243756,0.064399,-0.289804,-0.514961,0.645367,-0.271251,0.494712,483503404.634463
-0.302223,-0.040310,-0.287103,-0.506149,0.654077,-0.269424,0.493364,483503404.634903
-0.422607,-0.080575,-0.306507,-0.497990,0.662171,-0.268813,0.491198,483503404.649564
-0.457917,-0.156250,-0.314606,-0.489694,0.670300,-0.269860,0.487927,483503404.665172
-0.686776,-0.248798,-0.398482,-0.481350,0.678305,-0.272630,0.483609,483503404.665621
-0.761411,-0.294019,-0.415149,-0.472886,0.686037,-0.276831,0.478639,483503404.680694
-0.809367,-0.334164,-0.423225,-0.464183,0.693417,-0.282499,0.473182,483503404.696621
-0.805083,-0.397100,-0.427707,-0.455172,0.700443,-0.289744,0.467169,483503404.697040
-0.794263,-0.452673,-0.450738,-0.445956,0.706845,-0.298185,0.461064,483503404.712017
-0.754465,-0.498323,-0.447679,-0.436992,0.712076,-0.307106,0.455710,483503404.727990
-0.733376,-0.539141,-0.452104,-0.428319,0.716043,-0.316253,0.451452,483503404.728484
-0.715687,-0.528541,-0.430505,-0.420064,0.718699,-0.325561,0.448361,483503404.744081
-0.718329,-0.518135,-0.429885,-0.412484,0.719895,-0.334911,0.446590,483503404.759512
-0.725912,-0.482584,-0.436914,-0.405914,0.719479,-0.344158,0.446250,483503404.760263
-0.719630,-0.408158,-0.377236,-0.400533,0.717614,-0.353159,0.447082,483503404.775221
-0.681633,-0.286550,-0.262114,-0.396272,0.714772,-0.361690,0.448610,483503404.790895
-0.552836,0.028058,-0.051945,-0.392808,0.711260,-0.369592,0.450791,483503404.791264
-0.460471,0.300068,0.084178,-0.389737,0.707124,-0.376663,0.454099,483503404.808477
-0.359190,0.597306,0.271623,-0.386862,0.702623,-0.382674,0.458498,483503404.821911
-0.210392,0.742164,0.435490,-0.384491,0.697908,-0.387245,0.463824,483503404.822117
0.071848,0.704948,0.699513,-0.383507,0.692971,-0.389614,0.470016,483503404.837802
0.301906,0.567513,0.947037,-0.384191,0.688373,-0.389094,0.476598,483503404.853197
0.291010,0.347977,1.026226,-0.386091,0.684870,-0.386551,0.482147,483503404.853475
0.236054,0.145415,0.906994,-0.387756,0.683376,-0.383920,0.485024,483503404.868950
0.186474,-0.002781,0.646181,-0.388676,0.683599,-0.382198,0.485333,483503404.885056
0.098127,-0.150886,0.336612,-0.388608,0.684730,-0.381944,0.483991,483503404.885764
-0.011586,-0.252768,0.092203,-0.387691,0.686188,-0.383250,0.481624,483503404.900362
-0.151719,-0.254356,-0.177375,-0.386370,0.687371,-0.385545,0.479160,483503404.916283
-0.134995,-0.224096,-0.221277,-0.385462,0.687410,-0.387996,0.477855,483503404.916563
-0.115412,-0.231683,-0.225397,-0.385312,0.686022,-0.389971,0.478363,483503404.932167
-0.112245,-0.218330,-0.173029,-0.385823,0.683422,-0.391373,0.480522,483503404.948365
-0.203700,-0.125694,-0.116557,-0.387095,0.679696,-0.392240,0.484065,483503404.948781
-0.359585,0.129732,-0.120077,-0.389393,0.674483,-0.393043,0.488838,483503404.964282
-0.477255,0.489740,-0.075918,-0.392743,0.667494,-0.394989,0.494154,483503404.980387
-0.466037,0.794301,0.151871,-0.396569,0.659761,-0.398475,0.498664,483503404.980801
-0.441284,1.029527,0.356586,-0.400535,0.652490,-0.402774,0.501598,483503404.995594
-0.309069,1.189120,0.467385,-0.404574,0.646249,-0.406243,0.503636,483503405.011399
-0.051453,1.140744,0.463408,-0.408515,0.640805,-0.407407,0.506462,483503405.011808
0.171980,0.570739,0.074305,-0.412316,0.635594,-0.406115,0.510966,483503405.026980
0.046949,0.165134,-0.126047,-0.416694,0.630409,-0.402871,0.516377,483503405.042906
-0.137342,-0.137712,-0.264271,-0.422505,0.624783,-0.398113,0.522151,483503405.043304
-0.364335,-0.314290,-0.260094,-0.429256,0.618824,-0.393027,0.527566,483503405.058460
-0.481958,-0.380685,-0.170162,-0.435904,0.613147,-0.389566,0.531297,483503405.074226
-0.516781,-0.332842,-0.225714,-0.441739,0.608215,-0.388681,0.532793,483503405.074603
-0.565256,-0.229756,-0.446897,-0.446988,0.603834,-0.390370,0.532163,483503405.089929
-0.528758,-0.148073,-0.678836,-0.451543,0.599833,-0.394311,0.529931,483503405.105972
-0.330719,-0.141327,-0.762022,-0.455215,0.596033,-0.399616,0.527097,483503405.106375
-0.017332,-0.185936,-0.758554,-0.457148,0.592744,-0.405872,0.524345,483503405.121497
0.248387,-0.128962,-0.673112,-0.457240,0.589812,-0.412210,0.522625,483503405.137201
0.523991,0.213224,-0.486855,-0.456254,0.586143,-0.417452,0.523452,483503405.137418
0.550555,0.258285,-0.362507,-0.454580,0.581291,-0.420790,0.527630,483503405.152967
0.314649,0.125589,-0.141311,-0.452281,0.575785,-0.422271,0.534416,483503405.168389
0.016113,0.013727,0.114905,-0.450251,0.569536,-0.422082,0.542909,483503405.168786
-0.219808,0.019137,0.342052,-0.449194,0.563084,-0.420377,0.551765,483503405.184045
-0.304062,0.008273,0.405132,-0.448853,0.557653,-0.418157,0.559195,483503405.200341
-0.327196,-0.004950,0.210284,-0.448133,0.553879,-0.416715,0.564574,483503405.200747
-0.426669,0.046071,0.020595,-0.446900,0.551055,-0.416316,0.568594,483503405.215818
-0.492456,-0.034289,-0.094996,-0.445837,0.548146,-0.416831,0.571854,483503405.231653
-0.436436,-0.144937,-0.191695,-0.445165,0.544513,-0.418036,0.574960,483503405.232285
-0.377615,-0.179929,-0.167940,-0.445322,0.539763,-0.419310,0.578381,483503405.247904
-0.077504,0.005096,0.005721,-0.446358,0.534163,-0.420204,0.582119,483503405.262969
0.054704,0.136554,0.065444,-0.448301,0.528074,-0.420168,0.586193,483503405.263617
0.086407,0.241061,0.156071,-0.451593,0.521469,-0.418494,0.590760,483503405.278639
0.143629,0.223842,0.126224,-0.455473,0.514901,-0.415860,0.595384,483503405.294398
0.095490,0.159298,0.161428,-0.458732,0.509039,-0.413303,0.599687,483503405.294798
0.015464,0.067807,0.202691,-0.461348,0.504117,-0.411123,0.603326,483503405.309584
-0.045531,0.042798,0.182799,-0.463507,0.500257,-0.409432,0.606027,483503405.325767
-0.057490,0.031895,0.101448,-0.465493,0.497080,-0.408091,0.608021,483503405.326029
-0.017960,0.008593,0.024097,-0.467499,0.494008,-0.406895,0.609785,483503405.341164
0.041821,-0.009297,-0.014279,-0.469561,0.490775,-0.405739,0.611578,483503405.356652
0.086499,-0.025060,-0.011464,-0.471647,0.487400,-0.404599,0.613426,483503405.356945
0.122718,-0.039056,0.073084,-0.473675,0.484083,-0.403412,0.615268,483503405.372468
0.118548,-0.058200,0.120172,-0.475579,0.481042,-0.402326,0.616894,483503405.388238
0.122525,-0.086277,0.144273,-0.477311,0.478483,-0.401381,0.618160,483503405.388507
0.140557,-0.096258,0.167316,-0.478826,0.476438,-0.400526,0.619122,483503405.404181
0.140196,-0.072335,0.180880,-0.480112,0.474941,-0.399769,0.619765,483503405.419676
0.134974,-0.047985,0.168397,-0.481152,0.473961,-0.399101,0.620139,483503405.419897
0.129234,-0.008370,0.164063,-0.482028,0.473400,-0.398439,0.620312,483503405.435471
0.117296,0.038384,0.171109,-0.482944,0.473073,-0.397638,0.620363,483503405.451110
0.101294,0.054347,0.166095,-0.483972,0.472857,-0.396695,0.620330,483503405.451862
0.072603,0.027712,0.168183,-0.485210,0.472655,-0.395577,0.620232,483503405.468922
0.043879,-0.011686,0.184740,-0.486705,0.472554,-0.394288,0.619958,483503405.483088
0.017573,-0.060987,0.188496,-0.488474,0.472625,-0.392980,0.619343,483503405.483666
0.024309,-0.135952,0.184281,-0.490641,0.472844,-0.391600,0.618336,483503405.498997
0.034516,-0.175500,0.202211,-0.493151,0.473297,-0.390168,0.616896,483503405.514767
0.055160,-0.226641,0.230999,-0.496036,0.474056,-0.388649,0.614956,483503405.515137
0.084230,-0.281554,0.288749,-0.499435,0.475196,-0.386876,0.612438,483503405.530218
0.060352,-0.317114,0.337202,-0.503204,0.477049,-0.384924,0.609133,483503405.546543
0.026687,-0.328129,0.340159,-0.506769,0.480120,-0.383305,0.604770,483503405.546952
0.003230,-0.314581,0.266411,-0.510018,0.484456,-0.382226,0.599239,483503405.561660
-0.032647,-0.293279,0.131796,-0.513057,0.489482,-0.381558,0.592953,483503405.577811
-0.049343,-0.279515,0.008921,-0.516027,0.494438,-0.380998,0.586590,483503405.578679
-0.053547,-0.298080,-0.100657,-0.518767,0.498730,-0.380574,0.580786,483503405.593462
-0.067263,-0.332078,-0.154419,-0.521125,0.502046,-0.380571,0.575799,483503405.608587
-0.073015,-0.336943,-0.088218,-0.523327,0.504539,-0.380758,0.571483,483503405.608800
-0.020418,-0.302492,-0.054277,-0.525307,0.506625,-0.381292,0.567451,483503405.625247
0.041945,-0.281991,0.004275,-0.527196,0.508543,-0.381917,0.563550,483503405.639879
0.100085,-0.305035,0.083272,-0.529199,0.510679,-0.382246,0.559502,483503405.640112
0.119902,-0.350786,0.098714,-0.531094,0.513478,-0.382485,0.554964,483503405.655841
0.137619,-0.366093,0.113901,-0.532690,0.516863,-0.382900,0.549983,483503405.671392
0.167810,-0.350632,0.134595,-0.534268,0.520483,-0.383065,0.544901,483503405.671677
0.148618,-0.322656,0.088255,-0.535826,0.524371,-0.383071,0.539614,483503405.688471
0.131552,-0.304305,0.000373,-0.537132,0.528535,-0.383297,0.534063,483503405.703493
0.161455,-0.303835,-0.052256,-0.538320,0.532638,-0.383605,0.528541,483503405.703847
0.194908,-0.312283,-0.029372,-0.539589,0.536484,-0.383594,0.523339,483503405.719671
0.218189,-0.302053,0.103719,-0.541087,0.540180,-0.383118,0.518316,483503405.734823
0.223215,-0.242429,0.205610,-0.542703,0.544189,-0.382310,0.513001,483503405.735247
0.285355,-0.089470,0.358318,-0.544458,0.548985,-0.381052,0.506932,483503405.750980
0.379485,0.133894,0.501172,-0.546045,0.555423,-0.379470,0.499341,483503405.766772
0.503106,0.391117,0.535426,-0.546984,0.564231,-0.377439,0.489889,483503405.767136
0.795182,0.705770,0.414461,-0.546105,0.576349,-0.375158,0.478381,483503405.782321
1.097135,1.054592,0.413667,-0.541921,0.592225,-0.372425,0.465715,483503405.797957
0.919316,1.388285,0.555835,-0.535053,0.610815,-0.367208,0.453632,483503405.798479
0.024023,1.567145,0.388085,-0.528070,0.629452,-0.357718,0.443813,483503405.813769
0.001296,1.585277,0.355003,-0.522132,0.647292,-0.344729,0.435378,483503405.829626
-0.920845,1.312294,-0.045620,-0.517811,0.663095,-0.330352,0.427837,483503405.830051
-0.957946,0.995939,-0.320622,-0.514908,0.676087,-0.315783,0.421969,483503405.844949
-0.793159,0.770422,-0.427503,-0.513299,0.686414,-0.302410,0.417022,483503405.860701
-0.580570,0.538076,-0.682682,-0.512466,0.694807,-0.290709,0.412444,483503405.861141
-0.353325,0.319915,-0.611260,-0.511733,0.700987,-0.279985,0.410310,483503405.877280
-0.183564,0.338925,-0.462536,-0.509657,0.706269,-0.270962,0.409895,483503405.892513
-0.139163,0.482980,-0.076120,-0.507017,0.710935,-0.263080,0.410237,483503405.892919
-0.033459,0.518248,0.161870,-0.504551,0.715513,-0.255972,0.409814,483503405.908785
0.069597,0.440617,0.186241,-0.502267,0.719767,-0.250242,0.408709,483503405.923743
0.103859,0.517994,0.156970,-0.500082,0.723437,-0.245538,0.407759,483503405.924274
0.121357,0.632590,0.155013,-0.498388,0.726515,-0.241701,0.406652,483503405.939544
0.073442,0.686695,0.125878,-0.496699,0.729495,-0.238933,0.405016,483503405.955191
-0.101764,0.538972,0.012537,-0.494170,0.732961,-0.237903,0.402450,483503405.955545
-0.423694,0.030309,-0.231857,-0.490408,0.737290,-0.238821,0.398584,483503405.971265
-0.526615,-0.149662,-0.350610,-0.485775,0.741928,-0.241263,0.394154,483503405.986826
-0.572011,-0.279155,-0.415625,-0.480819,0.746382,-0.244880,0.389566,483503405.987214
-0.626547,-0.354147,-0.446341,-0.476108,0.750336,-0.249115,0.385043,483503406.002646
-0.617519,-0.420424,-0.442071,-0.472204,0.753428,-0.253677,0.380812,483503406.018322
-0.578175,-0.480360,-0.470493,-0.469288,0.755388,-0.258208,0.377474,483503406.018690
-0.539167,-0.499427,-0.528077,-0.467185,0.755908,-0.262610,0.376003,483503406.033906
-0.532456,-0.513698,-0.560871,-0.465875,0.754732,-0.266811,0.377029,483503406.050998
-0.560295,-0.518056,-0.565434,-0.465409,0.751628,-0.270736,0.380988,483503406.051449
-0.548206,-0.509916,-0.528616,-0.465672,0.746637,-0.274534,0.387703,483503406.065240
-0.521999,-0.510738,-0.443602,-0.466437,0.740188,-0.278337,0.396343,483503406.081273
-0.510847,-0.503260,-0.372316,-0.467707,0.732639,-0.282255,0.405984,483503406.081678
-0.515227,-0.492358,-0.368525,-0.469580,0.724204,-0.286367,0.415953,483503406.096874
-0.515107,-0.479472,-0.350879,-0.472123,0.714963,-0.290756,0.425898,483503406.112608
-0.506655,-0.448758,-0.327749,-0.475253,0.705004,-0.295352,0.435742,483503406.112995
-0.470134,-0.441066,-0.309480,-0.478881,0.694372,-0.299760,0.445718,483503406.128299
-0.440325,-0.420213,-0.300283,-0.482749,0.683133,-0.303947,0.455959,483503406.144369
-0.401866,-0.382151,-0.248506,-0.486402,0.671478,-0.308171,0.466434,483503406.144872
-0.369195,-0.317061,-0.167941,-0.489581,0.659616,-0.312716,0.476891,483503406.159825
-0.357762,-0.190105,-0.106520,-0.492220,0.647600,-0.318164,0.486935,483503406.175503
-0.344091,-0.058937,-0.114059,-0.494353,0.635447,-0.324704,0.496376,483503406.175878
-0.298991,0.024994,-0.102322,-0.496306,0.623333,-0.332364,0.504649,483503406.191300
-0.053529,0.012925,0.018740,-0.497972,0.611750,-0.340887,0.511451,483503406.207017
0.036475,-0.006877,0.108941,-0.499054,0.601469,-0.349586,0.516691,483503406.207388
0.149484,-0.003608,0.204840,-0.499237,0.592731,-0.358827,0.520265,483503406.223164
0.332945,0.028184,0.322037,-0.498442,0.586119,-0.368703,0.521611,483503406.238580
0.491838,0.100150,0.436227,-0.496800,0.581431,-0.378953,0.521078,483503406.239207
0.691658,0.216642,0.482588,-0.495171,0.577471,-0.388348,0.520113,483503406.254291
0.908992,0.296828,0.504474,-0.494168,0.573153,-0.394566,0.521163,483503406.270366
0.917422,0.304087,0.701589,-0.494012,0.568335,-0.396259,0.525287,483503406.270783
0.665835,0.268739,1.044478,-0.494896,0.563981,-0.394390,0.530528,483503406.285725
0.369091,0.176018,1.114357,-0.496505,0.561047,-0.390568,0.534945,483503406.301501
0.168677,0.032705,0.814183,-0.498180,0.559507,-0.386268,0.538114,483503406.302067
0.075286,-0.324881,0.161940,-0.499337,0.559003,-0.382677,0.540127,483503406.317200
0.143073,-0.451475,-0.040770,-0.499623,0.559408,-0.380046,0.541299,483503406.333081
0.113467,-0.552637,-0.191652,-0.499017,0.560570,-0.377771,0.542248,483503406.333486
-0.091433,-0.595575,-0.285008,-0.497710,0.561677,-0.375777,0.543687,483503406.348601
-0.263635,-0.596276,-0.318297,-0.495921,0.561817,-0.374594,0.545988,483503406.364449
-0.309466,-0.511158,-0.341263,-0.493327,0.561052,-0.375299,0.548634,483503406.364836
-0.293955,-0.441045,-0.381333,-0.488655,0.560102,-0.378608,0.551505,483503406.380140
-0.501972,-0.170755,-0.106790,-0.481254,0.558830,-0.385104,0.554796,483503406.396367
-0.720393,0.538679,0.324981,-0.471533,0.557541,-0.395842,0.556878,483503406.396786
-0.555050,1.437536,0.029708,-0.463157,0.556645,-0.406422,0.557182,483503406.411767
-0.443934,2.089057,-0.288989,-0.457249,0.555657,-0.415308,0.556496,483503406.427127
0.291240,0.793449,0.212609,-0.453328,0.553885,-0.422224,0.556267,483503406.427515
0.552476,0.308499,-0.050006,-0.451366,0.553709,-0.425488,0.555550,483503406.443043
0.283775,0.340308,-0.087545,-0.450329,0.553727,-0.426302,0.555749,483503406.458834
0.182130,0.308987,0.066071,-0.449047,0.553856,-0.427154,0.556003,483503406.459203
0.098726,0.132406,0.067776,-0.448153,0.554238,-0.426871,0.556561,483503406.474382
0.037624,0.101788,0.085767,-0.447887,0.554486,-0.425359,0.557685,483503406.490342
0.074029,0.320527,0.171711,-0.447978,0.554183,-0.423632,0.559225,483503406.490719
0.177232,0.671658,0.152495,-0.448726,0.553276,-0.421615,0.561044,483503406.506012
0.105374,0.956847,0.052057,-0.450242,0.551644,-0.418902,0.563464,483503406.521731
-0.057806,1.040184,0.151832,-0.451989,0.550243,-0.415760,0.565758,483503406.522130
-0.159963,0.720454,0.239492,-0.453305,0.550256,-0.413064,0.566666,483503406.537512
-0.234283,0.280197,0.072432,-0.454539,0.550871,-0.411063,0.566536,483503406.553264
-0.193041,-0.236881,-0.231019,-0.455797,0.551305,-0.409686,0.566099,483503406.553801
-0.142582,-0.318155,-0.303622,-0.457078,0.550965,-0.408358,0.566357,483503406.569515
-0.160060,-0.298503,-0.349901,-0.458491,0.549463,-0.406886,0.567732,483503406.585050
-0.188632,-0.277988,-0.440966,-0.460127,0.546533,-0.405331,0.570343,483503406.585555
-0.212872,-0.233033,-0.349303,-0.461788,0.542477,-0.403863,0.573903,483503406.600463
-0.261995,-0.142179,-0.137453,-0.463422,0.538058,-0.402779,0.577497,483503406.616046
-0.287736,-0.041228,0.075922,-0.465061,0.533778,-0.402330,0.580457,483503406.616504
-0.238653,0.057288,0.209098,-0.467037,0.529529,-0.402201,0.582846,483503406.632188
-0.111040,0.078606,0.234474,-0.469702,0.525056,-0.401714,0.585083,483503406.646917
0.014688,0.059279,0.216936,-0.473294,0.520190,-0.400565,0.587318,483503406.647137
0.132497,0.013918,0.210285,-0.477462,0.515339,-0.398974,0.589301,483503406.663454
0.180277,-0.008682,0.135414,-0.481903,0.510716,-0.397288,0.590848,483503406.679553
0.184336,-0.033588,0.202867,-0.485963,0.506744,-0.396007,0.591802,483503406.680005
0.151077,-0.098765,0.332641,-0.489274,0.504132,-0.395406,0.591706,483503406.695907
0.116775,-0.184826,0.415148,-0.492260,0.503114,-0.395332,0.590143,483503406.709904
0.126880,-0.308666,0.371300,-0.494907,0.503956,-0.395972,0.586772,483503406.710141
0.156915,-0.390319,0.271817,-0.496937,0.506613,-0.397509,0.581708,483503406.725587
0.197653,-0.429061,0.186398,-0.498782,0.510268,-0.399460,0.575564,483503406.741292
0.206793,-0.457557,0.117039,-0.500561,0.514337,-0.401468,0.568963,483503406.742621
0.171508,-0.414521,0.156226,-0.502338,0.518307,-0.403578,0.562263,483503406.757820
0.216300,-0.378694,0.287984,-0.504482,0.521829,-0.405183,0.555896,483503406.773478
0.226624,-0.322438,0.388466,-0.506548,0.525769,-0.406519,0.549289,483503406.773983
0.118094,-0.220466,0.034531,-0.508044,0.530604,-0.408446,0.541777,483503406.789092
0.107037,-0.229350,-0.078601,-0.509085,0.535560,-0.410840,0.534059,483503406.805794
0.092772,-0.226388,-0.022563,-0.509791,0.540171,-0.413375,0.526735,483503406.806221
0.100842,-0.217693,0.068649,-0.510311,0.544523,-0.415773,0.519817,483503406.820624
0.130046,-0.241707,0.090944,-0.510930,0.548843,-0.417697,0.513080,483503406.836439
0.114579,-0.260543,0.032443,-0.512008,0.552752,-0.418599,0.507039,483503406.836793
0.070915,-0.264196,0.045116,-0.513887,0.555799,-0.418097,0.502197,483503406.852558
0.021111,-0.263908,0.071083,-0.516630,0.558126,-0.416106,0.498442,483503406.867828
-0.011651,-0.271732,0.088204,-0.519823,0.560316,-0.413248,0.495030,483503406.868219
-0.069897,-0.266227,0.008585,-0.522652,0.562982,-0.410658,0.491168,483503406.884018
-0.104214,-0.272847,-0.136072,-0.524980,0.565763,-0.408762,0.487053,483503406.899440
-0.083275,-0.256762,-0.159661,-0.527148,0.567971,-0.407403,0.483267,483503406.899978
-0.015124,-0.264835,-0.180381,-0.529344,0.569565,-0.406381,0.479838,483503406.915207
0.165839,-0.233701,-0.113796,-0.532127,0.570496,-0.404700,0.477067,483503406.930839
0.365010,-0.132878,0.052030,-0.535018,0.571766,-0.402476,0.474186,483503406.931205
0.526079,0.053641,0.262211,-0.537035,0.574742,-0.399923,0.470454,483503406.946713
0.744402,0.294879,0.478376,-0.537260,0.581155,-0.397617,0.464232,483503406.962286
0.894145,0.510307,0.548124,-0.535423,0.591656,-0.394668,0.455524,483503406.962641
0.772949,0.751245,0.668517,-0.531686,0.605496,-0.389790,0.445812,483503406.978133
0.408801,0.955239,0.764421,-0.526125,0.622046,-0.382664,0.435683,483503406.994348
-0.045094,1.152612,0.592136,-0.520383,0.639342,-0.373064,0.425754,483503406.995016
-0.660632,1.315954,0.320307,-0.516687,0.655003,-0.361290,0.416504,483503407.009361
-0.603513,1.297036,0.355876,-0.514776,0.669441,-0.347381,0.407654,483503407.025177
-0.816254,1.305139,-0.273149,-0.515121,0.681018,-0.332152,0.400675,483503407.025548
-0.677548,1.137316,-0.505482,-0.516475,0.689911,-0.318282,0.394934,483503407.041321
-0.520883,0.716321,-0.785205,-0.517191,0.697187,-0.306921,0.390183,483503407.056683
-0.187015,0.242938,-0.892739,-0.515977,0.702908,-0.298111,0.388353,483503407.057266
-0.274548,0.158163,-0.313850,-0.513217,0.707636,-0.290036,0.389536,483503407.072735
-0.357342,0.172484,-0.006156,-0.511654,0.710418,-0.280854,0.393240,483503407.088191
-0.246288,0.262782,0.192515,-0.510237,0.712346,-0.271324,0.398252,483503407.088577
-0.152124,0.369846,0.259289,-0.508065,0.714431,-0.262618,0.403101,483503407.103973
-0.067601,0.409727,0.191727,-0.505075,0.716950,-0.255830,0.406733,483503407.119526
-0.040620,0.343753,0.066595,-0.502095,0.719368,-0.251174,0.409050,483503407.120092
-0.088005,0.162237,-0.064656,-0.499678,0.721216,-0.248480,0.410398,483503407.136201
-0.229268,-0.286077,-0.314777,-0.497758,0.722453,-0.247510,0.411142,483503407.151396
-0.265615,-0.374662,-0.416210,-0.495987,0.723245,-0.248206,0.411470,483503407.151763
-0.300818,-0.427050,-0.471083,-0.494048,0.723666,-0.250364,0.411755,483503407.167006
-0.330280,-0.460210,-0.495062,-0.491789,0.723626,-0.253859,0.412390,483503407.182515
-0.369108,-0.477888,-0.500723,-0.489248,0.722860,-0.258331,0.413975,483503407.182966
-0.429148,-0.471572,-0.497726,-0.486716,0.721023,-0.263204,0.417081,483503407.198189
-0.484385,-0.462508,-0.480177,-0.484479,0.717835,-0.268134,0.422016,483503407.214524
-0.553638,-0.460714,-0.439926,-0.482795,0.713248,-0.273098,0.428490,483503407.215590
-0.600545,-0.474768,-0.381540,-0.481692,0.707513,-0.278215,0.435884,483503407.229636
-0.633906,-0.470800,-0.343020,-0.481126,0.700807,-0.283483,0.443876,483503407.245539
-0.647008,-0.446577,-0.293884,-0.480982,0.693358,-0.288764,0.452245,483503407.245944
-0.594082,-0.359784,-0.256129,-0.481114,0.685206,-0.293898,0.461135,483503407.261268
-0.537346,-0.395237,-0.214858,-0.481454,0.676372,-0.298714,0.470630,483503407.277187
-0.466226,-0.417797,-0.148874,-0.481945,0.667045,-0.303362,0.480366,483503407.277629
-0.412304,-0.435438,-0.105163,-0.482445,0.657658,-0.308126,0.489684,483503407.292753
-0.415134,-0.416154,-0.124348,-0.482764,0.648293,-0.313693,0.498248,483503407.308659
-0.405831,-0.389710,-0.132149,-0.482829,0.638684,-0.320425,0.506248,483503407.309082
-0.432086,-0.307843,-0.127954,-0.482753,0.628750,-0.328142,0.513757,483503407.324206
-0.353611,-0.184288,-0.070345,-0.482592,0.618726,-0.336882,0.520379,483503407.339997
-0.220102,-0.076587,0.079452,-0.482356,0.609349,-0.346580,0.525270,483503407.340391
-0.112503,-0.022861,0.205684,-0.481939,0.601333,-0.357113,0.527829,483503407.355875
-0.025910,0.008960,0.251227,-0.481174,0.594846,-0.368246,0.528229,483503407.371141
0.059206,0.046316,0.254126,-0.480229,0.589648,-0.379497,0.526951,483503407.371609
0.213036,0.013343,0.272597,-0.479431,0.585538,-0.390265,0.524390,483503407.387250
0.415995,-0.037928,0.232299,-0.477977,0.582929,-0.400269,0.521073,483503407.402911
0.533930,-0.100231,0.174759,-0.475237,0.581535,-0.409164,0.518220,483503407.403283
0.582864,-0.122824,0.188657,-0.472073,0.579933,-0.415759,0.517657,483503407.418521
0.576602,-0.132052,0.296978,-0.470142,0.576604,-0.418436,0.520965,483503407.434591
0.490538,-0.158261,0.441910,-0.470500,0.570924,-0.416663,0.528268,483503407.434965
0.338146,-0.135749,0.645734,-0.472080,0.564460,-0.412387,0.537087,483503407.450163
0.092491,-0.072460,0.691485,-0.473515,0.559258,-0.407850,0.544676,483503407.466004
-0.085551,-0.124597,0.458410,-0.474735,0.555378,-0.403441,0.550833,483503407.466505
-0.227896,-0.237961,0.139117,-0.476012,0.551802,-0.399112,0.556450,483503407.481583
-0.356339,-0.213740,-0.059557,-0.476682,0.548144,-0.396224,0.561532,483503407.497206
-0.345111,0.409443,-0.062640,-0.474885,0.544977,-0.396596,0.565859,483503407.497604
-0.307765,1.116803,-0.235919,-0.469907,0.543410,-0.400648,0.568660,483503407.513012
-0.547560,1.409130,-0.502190,-0.463182,0.544425,-0.407559,0.568295,483503407.529124
-0.504971,1.399936,-0.318639,-0.454869,0.545798,-0.416988,0.566851,483503407.529520
-0.183360,0.772206,0.122998,-0.448081,0.546387,-0.425459,0.565393,483503407.544355
0.352656,0.270545,0.216826,-0.446302,0.546103,-0.428788,0.564559,483503407.560309
0.655803,0.350563,0.135641,-0.447656,0.545102,-0.427941,0.565096,483503407.561058
0.905563,0.429431,0.213201,-0.448198,0.545189,-0.426074,0.565993,483503407.575998
0.641023,0.306366,0.125415,-0.447137,0.546808,-0.423794,0.566982,483503407.591554
0.134986,0.211980,0.134806,-0.445165,0.548801,-0.422152,0.567832,483503407.591971
-0.184174,0.588244,0.309671,-0.442419,0.551183,-0.423083,0.566977,483503407.607271
-0.078992,1.706664,0.171940,-0.440989,0.552848,-0.424025,0.565765,483503407.623020
0.127834,1.123771,0.530447,-0.441267,0.554363,-0.422527,0.565187,483503407.623394
-0.081267,0.312877,0.364590,-0.442436,0.557274,-0.419113,0.563951,483503407.639267
-0.414125,-0.045764,-0.225780,-0.443922,0.560725,-0.415389,0.562114,483503407.654838
-0.399426,-0.353027,-0.508993,-0.445358,0.563036,-0.412319,0.560927,483503407.655226
-0.270483,-0.494913,-0.431315,-0.446489,0.563700,-0.410068,0.561012,483503407.670407
-0.196463,-0.463016,-0.376499,-0.447391,0.562853,-0.408716,0.562129,483503407.685919
-0.198094,-0.339970,-0.431010,-0.448594,0.560116,-0.407385,0.564864,483503407.686394
-0.313920,-0.224351,-0.447884,-0.450127,0.555570,-0.406100,0.569043,483503407.701758
-0.407077,-0.100425,-0.277825,-0.451796,0.550312,-0.405348,0.573350,483503407.719334
-0.365066,-0.035857,-0.051911,-0.453661,0.545075,-0.405019,0.577100,483503407.719579
-0.309879,-0.016511,0.216500,-0.455835,0.540078,-0.405195,0.579955,483503407.733858
-0.161220,0.074048,0.298626,-0.458378,0.535161,-0.405933,0.581989,483503407.748104
0.045887,0.099954,0.293474,-0.461434,0.530192,-0.406505,0.583719,483503407.748342
0.179687,-0.008220,0.230075,-0.464926,0.525306,-0.406515,0.585357,483503407.764138
0.285686,-0.133718,0.191683,-0.469007,0.520443,-0.405690,0.587015,483503407.779798
0.331750,-0.152254,0.199672,-0.473804,0.515381,-0.403468,0.589158,483503407.780928
0.303515,-0.156640,0.306270,-0.479489,0.509945,-0.399597,0.591919,483503407.795599
0.202009,-0.182383,0.465040,-0.485499,0.505164,-0.394932,0.594247,483503407.811314
0.102702,-0.198609,0.568046,-0.490689,0.502667,-0.391181,0.594582,483503407.811631
0.018661,-0.205078,0.535080,-0.494933,0.502707,-0.388985,0.592468,483503407.827082
0.016499,-0.251819,0.413648,-0.498729,0.504508,-0.387853,0.588482,483503407.842757
0.102828,-0.339825,0.284865,-0.502345,0.507279,-0.387054,0.583530,483503407.843065
0.085626,-0.361087,0.267870,-0.505877,0.510689,-0.386296,0.577980,483503407.858723
-0.058340,-0.360502,0.216469,-0.509165,0.514790,-0.385668,0.571842,483503407.874579
-0.131325,-0.323243,0.069629,-0.512130,0.519241,-0.385551,0.565209,483503407.874819
-0.095408,-0.279400,-0.065543,-0.514935,0.523216,-0.385996,0.558654,483503407.889880
-0.011283,-0.230915,-0.113810,-0.517760,0.526130,-0.386548,0.552894,483503407.905744
0.095640,-0.192953,-0.075313,-0.520844,0.528007,-0.386679,0.548096,483503407.905969
0.182689,-0.205933,-0.006527,-0.524108,0.529341,-0.386238,0.543993,483503407.921442
0.168898,-0.266114,0.023516,-0.527502,0.530438,-0.385118,0.540427,483503407.937150
0.158024,-0.316659,0.071980,-0.531026,0.531508,-0.383481,0.537078,483503407.937370
0.159089,-0.314193,0.110626,-0.534502,0.532783,-0.381545,0.533735,483503407.952820
0.155467,-0.213758,-0.023069,-0.537871,0.534115,-0.379457,0.530499,483503407.968589
0.188963,-0.234502,-0.068268,-0.541393,0.535221,-0.376975,0.527563,483503407.968828
0.247961,-0.306599,-0.035695,-0.545219,0.536028,-0.373940,0.524956,483503407.985291
0.274367,-0.367079,0.040731,-0.549225,0.536822,-0.370342,0.522514,483503408.000654
0.262041,-0.403066,0.090544,-0.552806,0.538399,-0.367077,0.519410,483503408.001769
0.221366,-0.383489,0.047302,-0.555453,0.541214,-0.364638,0.515363,483503408.016995
0.200812,-0.255175,0.075942,-0.557624,0.544813,-0.362585,0.510653,483503408.032203
0.270090,-0.071078,0.221112,-0.559469,0.549428,-0.360444,0.505176,483503408.032560
0.439540,0.136893,0.417815,-0.560455,0.555993,-0.357923,0.498651,483503408.048041
0.602320,0.422167,0.520686,-0.560051,0.565905,-0.355135,0.489870,483503408.063484
0.653499,0.643739,0.473008,-0.557973,0.579251,-0.351434,0.479196,483503408.063923
0.120574,0.950779,0.450284,-0.554428,0.594668,-0.345993,0.468262,483503408.079719
-0.278429,1.098421,0.292324,-0.550828,0.610323,-0.337724,0.458299,483503408.095127
-0.462637,1.238894,0.280937,-0.548001,0.624578,-0.327109,0.450107,483503408.095525
-0.352469,1.220073,0.293014,-0.545760,0.637956,-0.314836,0.442760,483503408.111082
-0.545225,1.190818,-0.029936,-0.544671,0.649685,-0.301042,0.436597,483503408.126427
-0.498763,1.109349,-0.099483,-0.544076,0.659543,-0.288277,0.431138,483503408.126847
-0.358043,0.921581,-0.585079,-0.541931,0.668798,-0.278978,0.425665,483503408.142421
-0.305402,0.646629,-0.591285,-0.538143,0.677356,-0.272200,0.421306,483503408.159022
-0.377497,0.432832,-0.381123,-0.534329,0.684638,-0.266427,0.418067,483503408.159420
-0.388866,0.312030,-0.202183,-0.531467,0.690225,-0.260559,0.416223,483503408.173593
-0.324640,0.211566,-0.064186,-0.529155,0.694449,-0.254241,0.416050,483503408.189504
-0.282876,0.165963,0.045918,-0.527041,0.697752,-0.247878,0.417044,483503408.189878
-0.270581,0.132875,0.047266,-0.525157,0.700238,-0.242539,0.418391,483503408.205299
-0.240076,0.077005,-0.036092,-0.523602,0.701880,-0.238992,0.419629,483503408.221174
-0.231590,-0.017617,-0.165077,-0.522237,0.702697,-0.237430,0.420848,483503408.221592
-0.219009,-0.127440,-0.257421,-0.520717,0.702846,-0.237790,0.422276,483503408.236869
-0.221193,-0.215881,-0.340202,-0.518859,0.702446,-0.239857,0.424056,483503408.252406
-0.248448,-0.297789,-0.418105,-0.516498,0.701517,-0.243257,0.426533,483503408.252792
-0.293166,-0.350508,-0.457952,-0.513623,0.700023,-0.247752,0.429859,483503408.268188
-0.342193,-0.389825,-0.463282,-0.510114,0.697966,-0.253172,0.434202,483503408.283907
-0.370119,-0.427920,-0.444399,-0.506074,0.695264,-0.259332,0.439595,483503408.284285
-0.382501,-0.459283,-0.412342,-0.501746,0.691759,-0.265856,0.446140,483503408.299937
-0.441101,-0.466881,-0.369343,-0.497611,0.687326,-0.272307,0.453668,483503408.315468
-0.542192,-0.421556,-0.304987,-0.494190,0.681832,-0.278733,0.461724,483503408.315872
-0.579336,-0.379143,-0.285208,-0.491700,0.675246,-0.285132,0.470077,483503408.331877
-0.588495,-0.355088,-0.267729,-0.490153,0.667579,-0.291517,0.478649,483503408.346880
-0.556277,-0.359455,-0.229058,-0.489205,0.659046,-0.297796,0.487497,483503408.347267
-0.582522,-0.373510,-0.198717,-0.488511,0.649940,-0.304143,0.496419,483503408.362622
-0.566517,-0.400161,-0.168064,-0.487945,0.640353,-0.311049,0.505081,483503408.378385
-0.546786,-0.412402,-0.150728,-0.487366,0.630464,-0.318698,0.513245,483503408.379089
-0.531096,-0.385007,-0.115670,-0.486937,0.620217,-0.327165,0.520756,483503408.393913
-0.497171,-0.171875,-0.023957,-0.486725,0.609743,-0.337601,0.526628,483503408.409674
-0.325982,-0.239125,-0.046089,-0.486239,0.599570,-0.347998,0.531963,483503408.410050
-0.316282,-0.232578,-0.067186,-0.486270,0.589319,-0.357421,0.537116,483503408.425559
-0.102304,-0.022467,0.137209,-0.486683,0.579437,-0.366312,0.541487,483503408.441193
0.018179,0.070883,0.432157,-0.486023,0.571599,-0.375272,0.544268,483503408.441533
0.039978,0.144041,0.381909,-0.482747,0.567171,-0.386020,0.544299,483503408.457345
0.015880,0.156976,0.346236,-0.477684,0.564583,-0.397685,0.543057,483503408.472946
0.043882,0.115786,0.436121,-0.472104,0.562803,-0.408764,0.541555,483503408.473357
0.105948,0.007135,0.540378,-0.467379,0.561176,-0.417437,0.540726,483503408.488484
0.199577,-0.097275,0.595047,-0.465226,0.558542,-0.421525,0.542137,483503408.504267
0.284531,-0.174241,0.663174,-0.467054,0.553718,-0.420015,0.546666,483503408.504884
0.392360,-0.249638,0.706855,-0.472282,0.546867,-0.414108,0.553535,483503408.520083
0.430488,-0.301557,0.715192,-0.478422,0.540147,-0.406912,0.560157,483503408.535641
0.437978,-0.335947,0.631076,-0.483583,0.535550,-0.400167,0.564978,483503408.536039
0.217605,-0.518814,-0.156709,-0.487438,0.533621,-0.393842,0.567928,483503408.551810
-0.084187,-0.469039,-0.527946,-0.490408,0.532481,-0.387155,0.571030,483503408.566717
-0.456696,-0.337530,-0.639002,-0.491446,0.530935,-0.382186,0.574911,483503408.566940
-0.763276,-0.055275,-0.456534,-0.488623,0.529117,-0.382199,0.578970,483503408.582981
-0.804189,0.716010,-0.265065,-0.481295,0.527251,-0.389462,0.581963,483503408.599097
-0.542398,1.683190,-0.331240,-0.471336,0.528236,-0.401870,0.580783,483503408.599879
-0.457179,2.033901,-0.178913,-0.461336,0.530122,-0.415558,0.577452,483503408.614379
0.035061,1.143230,0.233819,-0.454347,0.529373,-0.426025,0.576052,483503408.629929
0.806111,0.448474,0.203843,-0.453091,0.526373,-0.428673,0.577823,483503408.630461
1.140391,0.311439,-0.108980,-0.454423,0.522093,-0.424947,0.583385,483503408.645325
0.843672,0.184470,0.194456,-0.453572,0.520089,-0.421090,0.588611,483503408.661640
0.275285,0.027076,0.306102,-0.451558,0.520127,-0.417718,0.592516,483503408.662051
-0.144493,0.493786,0.577430,-0.449279,0.521177,-0.415517,0.594868,483503408.678385
-0.053788,1.399107,0.472734,-0.446840,0.521951,-0.414942,0.596427,483503408.693324
-0.130938,2.385972,0.133039,-0.446137,0.521362,-0.414112,0.598042,483503408.693775
-0.193726,2.072652,0.345293,-0.447194,0.521443,-0.412064,0.598597,483503408.708779
-0.020058,0.572752,0.783408,-0.449709,0.523458,-0.408769,0.597212,483503408.724650
-0.230116,-0.071306,0.428981,-0.453948,0.527875,-0.403942,0.593389,483503408.725057
-0.362791,-0.334363,-0.181604,-0.457945,0.533192,-0.400052,0.588175,483503408.740457
-0.293580,-0.555497,-0.503703,-0.461116,0.537448,-0.397834,0.583310,483503408.756308
-0.190031,-0.663710,-0.685869,-0.463256,0.539659,-0.396858,0.580229,483503408.756713
-0.218467,-0.596518,-0.848119,-0.464929,0.538836,-0.396101,0.580173,483503408.771680
-0.362573,-0.447672,-0.851677,-0.466680,0.535251,-0.395065,0.582786,483503408.787457
-0.599881,-0.255476,-0.439887,-0.468438,0.529825,-0.394417,0.586760,483503408.787820
-0.563058,-0.117943,-0.124215,-0.470289,0.523431,-0.394574,0.590897,483503408.803213
-0.450049,0.054410,0.067532,-0.472388,0.516552,-0.395503,0.594644,483503408.819109
-0.288050,0.234264,0.155399,-0.474767,0.509048,-0.396872,0.598297,483503408.819341
-0.098572,0.285052,0.180912,-0.477195,0.501194,-0.398590,0.601844,483503408.834379
0.053642,0.192616,0.123729,-0.479390,0.493681,-0.400817,0.604822,483503408.850584
0.248567,0.064799,0.061781,-0.481766,0.486250,-0.402842,0.607602,483503408.851017
0.488573,-0.036284,0.111961,-0.485552,0.477817,-0.402652,0.611394,483503408.866167
0.587119,-0.093313,0.305846,-0.491037,0.468574,-0.399549,0.616183,483503408.881783
0.626349,-0.137469,0.568986,-0.497149,0.460437,-0.394805,0.620459,483503408.882150
0.657418,-0.170457,0.793066,-0.503014,0.454985,-0.389729,0.622958,483503408.897525
0.480378,-0.196311,0.979206,-0.508500,0.453161,-0.384986,0.622784,483503408.913467
0.287317,-0.254251,0.707621,-0.513444,0.455087,-0.381284,0.619592,483503408.913858
0.056548,-0.284515,0.396574,-0.517657,0.459669,-0.379150,0.613987,483503408.929449
-0.067979,-0.271875,0.208419,-0.521414,0.465625,-0.378529,0.606661,483503408.944707
-0.027269,-0.308993,0.074753,-0.524659,0.472334,-0.379092,0.598266,483503408.945097
0.015029,-0.311279,-0.052986,-0.527469,0.478656,-0.380287,0.589954,483503408.960968
0.046089,-0.254531,-0.121240,-0.530070,0.483600,-0.381448,0.582799,483503408.976389
0.032483,-0.201219,-0.120803,-0.532306,0.487442,-0.382544,0.576810,483503408.976814
-0.027737,-0.160570,-0.089114,-0.534092,0.490707,-0.383917,0.571454,483503408.992178
-0.080252,-0.143308,-0.052197,-0.535732,0.493240,-0.385334,0.566765,483503409.007741
-0.127140,-0.146646,0.018489,-0.537510,0.495258,-0.386727,0.562357,483503409.008143
-0.152291,-0.197590,0.059819,-0.539552,0.497119,-0.388099,0.557795,483503409.023487
-0.085976,-0.252337,0.108428,-0.541997,0.499048,-0.389382,0.552786,483503409.039528
0.069860,-0.315884,0.108150,-0.545008,0.501208,-0.390045,0.547377,483503409.039947
0.207834,-0.378821,0.021026,-0.548708,0.503185,-0.389304,0.542371,483503409.055167
0.304903,-0.418659,-0.009433,-0.552907,0.504653,-0.387229,0.538213,483503409.070581
0.365414,-0.401247,0.048373,-0.557362,0.505659,-0.384214,0.534823,483503409.070968
0.373730,-0.350105,0.108759,-0.561703,0.506803,-0.381113,0.531407,483503409.086384
0.342578,-0.301119,0.115750,-0.565553,0.508644,-0.378017,0.527764,483503409.102925
0.244151,-0.279183,0.073981,-0.569148,0.510880,-0.374256,0.524410,483503409.103417
0.141884,-0.251269,0.060134,-0.572532,0.513635,-0.370284,0.520842,483503409.117810
0.118831,-0.185624,0.110672,-0.575426,0.517568,-0.366771,0.516225,483503409.134011
0.443631,0.110415,0.646578,-0.577743,0.523684,-0.363124,0.510009,483503409.134458
0.582425,0.376814,0.734050,-0.579120,0.532651,-0.358802,0.502159,483503409.149439
0.555352,0.628897,0.572741,-0.578965,0.544915,-0.353783,0.492651,483503409.165106
0.217550,0.838058,0.305610,-0.577064,0.559986,-0.347444,0.482385,483503409.165476
-0.279577,1.048653,0.283505,-0.574844,0.575268,-0.338397,0.473401,483503409.181004
-0.307130,1.234141,0.377534,-0.573846,0.589443,-0.325615,0.466083,483503409.196479
-0.403083,1.299497,0.221405,-0.573645,0.602756,-0.310202,0.459774,483503409.196874
-0.425335,1.317721,0.192354,-0.573450,0.614868,-0.294627,0.454188,483503409.212315
-0.337318,1.053767,-0.147415,-0.571531,0.627045,-0.281684,0.448130,483503409.228261
-0.190034,0.823552,-0.625067,-0.567172,0.638511,-0.270629,0.444274,483503409.228726
-0.173947,0.617277,-0.637377,-0.561294,0.648484,-0.261244,0.442911,483503409.243763
-0.271490,0.493022,-0.325589,-0.555910,0.656127,-0.252612,0.443451,483503409.258556
-0.274928,0.481356,-0.047065,-0.551962,0.661102,-0.244125,0.445741,483503409.258785
-0.239383,0.474170,0.343688,-0.549354,0.664401,-0.235512,0.448683,483503409.275565
-0.240535,0.443495,0.445074,-0.547320,0.667413,-0.227756,0.450697,483503409.290999
-0.273370,0.325629,0.389286,-0.545261,0.670601,-0.222368,0.451151,483503409.291361
-0.273646,0.153164,0.240634,-0.543183,0.673719,-0.219842,0.450249,483503409.306609
-0.245944,-0.032139,0.037333,-0.541113,0.676414,-0.219516,0.448859,483503409.323985
-0.221496,-0.177281,-0.140487,-0.538941,0.678520,-0.220848,0.447638,483503409.324439
-0.214666,-0.310260,-0.292214,-0.536513,0.680002,-0.223643,0.446917,483503409.337994
-0.215451,-0.400019,-0.398476,-0.533816,0.680782,-0.227889,0.446813,483503409.354074
-0.236757,-0.446030,-0.454673,-0.530809,0.680959,-0.233281,0.447343,483503409.354461
-0.299311,-0.444355,-0.469272,-0.527580,0.680454,-0.239642,0.448569,483503409.369527
-0.455439,-0.422421,-0.427508,-0.524396,0.679073,-0.246754,0.450534,483503409.386015
-0.525592,-0.412345,-0.404858,-0.521606,0.676563,-0.254247,0.453374,483503409.386429
-0.566877,-0.413387,-0.393151,-0.519536,0.672765,-0.261857,0.457056,483503409.401777
-0.632033,-0.421557,-0.360449,-0.518269,0.667581,-0.269433,0.461670,483503409.416914
-0.670714,-0.434839,-0.316098,-0.517765,0.661230,-0.276970,0.466885,483503409.417339
-0.689177,-0.448989,-0.293763,-0.517655,0.653893,-0.284575,0.472731,483503409.432597
-0.661406,-0.437991,-0.255053,-0.517480,0.645950,-0.292330,0.479068,483503409.448290
-0.609312,-0.391332,-0.207924,-0.516962,0.637668,-0.300307,0.485742,483503409.448673
