ts,pos_x,pos_y,vel_x,vel_y,acc_x,acc_y,theta,mag_vel,K_curve
1462275499.12,0.0,0.0,0.0,0.0,0.00201341818308,0.00604623185349,0,0.0,0
1462275499.12,0.00100670909154,0.00302311592675,0.00197314981941,0.00592530721642,0.00201295146229,0.00604591809609,0,0.00624520502617,0.00881181218311
1462275499.12,0.0039863346421,0.0119713821912,0.00390637925607,0.0117318008063,0.00201201368731,0.00604529141039,0,0.0123650697147,0.00563705044113
1462275499.15,0.00889872074182,0.0267258287027,0.00580002508451,0.0174215503723,0.00201060841088,0.00604435282382,0,0.0183616640955,0.00476239132314
1462275499.15,0.0157040500318,0.0471695554869,0.00765442082548,0.0229965851322,0.00200873729875,0.00604310213119,0,0.0242370189156,0.00437913602271
1462275499.15,0.0243628395066,0.0731876916847,0.00946989496175,0.0284588935182,0.00200639888013,0.00604153832565,0,0.0299931247266,0.00418218088007
1462275499.18,0.0348359339084,0.104667354366,0.011246767965,0.0338104232069,0.00200359425539,0.00603966396494,0,0.0356319310042,0.00407452274934
1462275499.18,0.0470844990012,0.141497609555,0.012985354976,0.0390530854284,0.00200032050739,0.00603748215862,0,0.0411553511142,0.00401910414089
1462275499.18,0.0610700142309,0.183569436063,0.0146859619738,0.0441887562353,0.00199657891651,0.00603499071984,0,0.0465652623392,0.00399436396634
1462275499.19,0.0767542656629,0.230775687658,0.0163488900725,0.049219272016,0.00199237343725,0.00603218885535,0,0.0518635030093,0.00398858643053
1462275499.21,0.094099342454,0.283011054102,0.0179744382395,0.054146431654,0.00198770458726,0.00602908161098,0,0.057051875437,0.00399702806354
1462275499.21,0.113067632987,0.340172026561,0.0195628999702,0.0589720029996,0.0019825722636,0.00602566454969,0,0.0621321510414,0.00401581995174
1462275499.23,0.133621819089,0.402156861836,0.0211145627892,0.0636977141983,0.0019769750422,0.00602193842568,0,0.0671060619905,0.00404312265217
1462275499.24,0.155724869399,0.468865545247,0.0226297070747,0.0683252595715,0.0019709126935,0.00601790205854,0,0.0719753064447,0.00407719440671
1462275499.25,0.179340032821,0.540199755848,0.0241086073729,0.0728562983975,0.00196438756719,0.00601354945698,0,0.076741547845,0.00411614240603
1462275499.26,0.204430833977,0.616062828974,0.0255515350413,0.0772924508974,0.00195739326543,0.00600888474448,0,0.081406411963,0.00416049476084
1462275499.27,0.230961065651,0.696359722243,0.0269587497406,0.081635308929,0.00194992873011,0.00600390544804,0,0.0859714944124,0.00420939611057
1462275499.28,0.258894779757,0.780996983896,0.0283305049013,0.0858864300895,0.00194199971311,0.00599860780783,0,0.0904383568044,0.00426138718932
1462275499.29,0.288196284515,0.86988271789,0.0296670545221,0.0900473371394,0.00193360904537,0.00599299758783,0,0.0948085283606,0.00431616377798
1462275499.3,0.31883014356,0.962926553823,0.0309686502961,0.0941195280327,0.00192475928605,0.00598707013975,0,0.0990835145635,0.00437318611338
1462275499.31,0.350761173499,1.06003961693,0.0322355413905,0.098104466209,0.00191545034851,0.00598082781236,0,0.103264787894,0.00443252315288
1462275499.32,0.383954440063,1.16113449704,0.0334679719042,0.102003588141,0.00190568359479,0.00597427920483,0,0.107353794237,0.0044942505419
1462275499.33,0.418375253765,1.26612522478,0.034666182389,0.105818309999,0.0018954598327,0.00596741990035,0,0.111351959715,0.00455811800888
1462275499.34,0.45398916607,1.37492724473,0.0358304093773,0.109550015301,0.00188477835532,0.00596024825329,0,0.115260678849,0.00462411712246
1462275499.35,0.490761964625,1.48745738416,0.036960883978,0.113200058283,0.00187363951113,0.00595275954694,0,0.119081317342,0.00469209889117
1462275499.36,0.528659668359,1.60363382222,0.0380578330193,0.116769761474,0.00186204056842,0.00594495785694,0,0.122815210169,0.00476232978893
1462275499.37,0.567648521662,1.72337606262,0.039121476116,0.120260424944,0.00184997807656,0.00593684675507,0,0.126463669491,0.00483503614035
1462275499.39,0.607694986817,1.84660491094,0.0401520251087,0.123673326265,0.00183745719334,0.00592843363096,0,0.130027984487,0.00490997050666
1462275499.39,0.648765740522,1.97324245402,0.041149692656,0.127009724698,0.00182448463651,0.00591971142916,0,0.133509428033,0.00498661303348
1462275499.39,0.690827675496,2.10321203444,0.0421146937467,0.130270847405,0.00181105291029,0.00591067905203,0,0.136909244074,0.00506539116941
1462275499.41,0.733847895698,2.23643822137,0.0430472317238,0.133457895928,0.00179714989506,0.00590133350551,0,0.140228649514,0.00514683566054
1462275499.42,0.777793702369,2.37284678405,0.0439474939865,0.136572044845,0.00178277310586,0.00589166335646,0,0.14346883167,0.00523079674716
1462275499.42,0.822632582909,2.51236466057,0.0448156617505,0.139614434037,0.00176794439935,0.00588166674628,0,0.14663094397,0.00531622191137
1462275499.43,0.868332216859,2.65491992798,0.0456519340269,0.142586178768,0.00175265599549,0.00587135340672,0,0.149716122899,0.00540369345855
1462275499.45,0.914860478884,2.80044178345,0.0464564982219,0.145488381531,0.00173689940429,0.0058607199061,0,0.1527254903,0.00549354524888
1462275499.45,0.962185426808,2.94886052493,0.0472295296737,0.148322119408,0.00172068975197,0.0058497742563,0,0.155660141266,0.00558527261589
1462275499.47,1.01027530136,3.10010753147,0.0479712150371,0.151088455791,0.00170403045607,0.00583851392653,0,0.158521162453,0.00567878425368
1462275499.48,1.05909853162,3.25411524422,0.0486817405833,0.153788430323,0.00168692673872,0.00582693791173,0,0.161309618955,0.00577396487524
1462275499.49,1.10862373558,3.4108171435,0.0493612939756,0.15642306087,0.00166937753222,0.00581505028355,0,0.164026556737,0.00587100645638
1462275499.5,1.15881971832,3.57014772952,0.0500100580777,0.158993348931,0.00165137929664,0.00580285064042,0,0.166673005952,0.00597011446932
1462275499.51,1.20965546604,3.73204250377,0.0506282086268,0.16150027558,0.00163291719512,0.00579034430052,0,0.169249976429,0.00607190739201
1462275499.52,1.26110013327,3.8964379515,0.0512159033055,0.163944807483,0.00161399928939,0.00577753061517,0,0.171758460205,0.00617611873729
1462275499.53,1.31312303622,4.06327152429,0.051773304543,0.166327891336,0.00159463119411,0.005764407262,0,0.174199433121,0.00628258995922
1462275499.54,1.36569365636,4.23248161925,0.0523005770224,0.168650452626,0.00157481464786,0.00575096710666,0,0.1765738529,0.00639126687593
1462275499.55,1.4187816407,4.40400755543,0.0527978838368,0.170913391338,0.00155459332978,0.00573717142632,0,0.178882653928,0.00650056927836
1462275499.56,1.47235682121,4.57778953249,0.0532654276233,0.173117551509,0.00153390389712,0.00572302563567,0,0.181126730276,0.00661264965478
1462275499.57,1.52638920078,4.75376859681,0.05370334489,0.175263765602,0.00151277134583,0.00570856170875,0,0.18330694691,0.00672711820133
1462275499.58,1.58084893134,4.93188664327,0.0541117939111,0.177352880764,0.00149120501406,0.00569378747159,0,0.185424190859,0.00684386533882
1462275499.59,1.63570632776,5.11208641777,0.0544909389467,0.179385734871,0.00146920463,0.00567872151476,0,0.187479343669,0.00696315196452
1462275499.6,1.69093186902,5.2943115134,0.0548409407051,0.181363167258,0.00144677267462,0.00566336115299,0,0.189473288923,0.00708496950753
1462275499.6,1.74649619606,5.47850636123,0.0551619591121,0.183285997843,0.00142391255067,0.00564770975786,0,0.191406893132,0.00720934328534
1462275499.63,1.80237011145,5.66461621395,0.0554541542296,0.185155033449,0.00140062616526,0.00563174772313,0,0.193281012085,0.00733616586742
1462275499.63,1.85852457876,5.85258712126,0.0557176847869,0.186971045549,0.00137690421108,0.00561546098087,0,0.195096469142,0.00746567765147
1462275499.63,1.91493071565,6.0423658973,0.0559526972181,0.188734776399,0.00135274750152,0.00559884298969,0,0.196854057993,0.00759791240349
1462275499.65,1.97155978662,6.2339000952,0.0561593358252,0.190446947001,0.00132815456218,0.00558189870829,0,0.198554553265,0.00773304965453
1462275499.66,2.02838319973,6.42713799155,0.0563377405796,0.192108268795,0.00130312435613,0.00556462775311,0,0.200198721157,0.00787121286881
1462275499.67,2.08537250249,6.62202857422,0.056488047637,0.193719438617,0.00127765772414,0.0055470277156,0,0.201787314824,0.00801246620111
1462275499.68,2.14249937899,6.8185215267,0.0566103912539,0.195281137006,0.00125176020014,0.00552910373594,0,0.20332107335,0.00815682054978
1462275499.69,2.19973565034,7.01656721557,0.056704908425,0.196794035927,0.00122543370262,0.00551086021443,0,0.204800730506,0.00830437247297
1462275499.7,2.25705327562,7.21611668161,0.0567717352851,0.198258798219,0.00119868030013,0.00549230374652,0,0.206227013261,0.00845523035466
1462275499.71,2.31442435105,7.4171216317,0.0568110072735,0.199676079926,0.00117150212736,0.00547343820147,0,0.207600644127,0.00860948366537
1462275499.73,2.37182110939,7.61953443073,0.0568228592128,0.201046527765,0.0011438975195,0.00545425874476,0,0.208922338814,0.008767253666
1462275499.73,2.42921591736,7.82330808786,0.0568074215977,0.202370770779,0.00111586066069,0.00543476645354,0,0.210192797247,0.0089287907061
1462275499.74,2.48658126929,8.02839624187,0.0567648166132,0.203649426488,0.0010873904859,0.00541496571101,0,0.211412708497,0.00909425529173
1462275499.75,2.54388978115,8.23475315121,0.0566951629571,0.204883104355,0.0010584867637,0.00539485676366,0,0.21258275554,0.00926376457848
1462275499.75,2.60111418748,8.44233368395,0.0565985767264,0.206072401897,0.00102915704526,0.00537444255621,0,0.213703611834,0.00943729029084
1462275499.77,2.65822734273,8.65109330712,0.0564751790962,0.207217907564,0.000999405733651,0.00535372766805,0,0.214775946207,0.00961489114161
1462275499.78,2.7152022247,8.86098807852,0.0563250931333,0.208320202527,0.000969227641195,0.00533272014872,0,0.215800423766,0.00979684996977
1462275499.79,2.77201193165,9.07197464112,0.056148434359,0.209379864222,0.000938637937944,0.00531142001962,0,0.216777706932,0.00998297914174
1462275499.81,2.82862968498,9.28401021536,0.055945330851,0.210397458557,0.000907639846984,0.00528983025489,0,0.217708453238,0.010173371781
1462275499.81,2.88502883575,9.49705258904,0.055715911284,0.211373543036,0.000876235115291,0.0052679571537,0,0.218593315236,0.0103681730493
1462275499.81,2.94118286459,9.71106011065,0.0554603034713,0.212308670186,0.000844429265383,0.00524579567348,0,0.219432943509,0.0105673937037
1462275499.84,2.9970653827,9.92599167868,0.055178638082,0.213203376542,0.00081221930568,0.00522334177158,0,0.220227977036,0.0107712307456
1462275499.84,3.05265013043,10.1418067261,0.0548710402399,0.214058183947,0.00077959863482,0.0052006068977,0,0.220979042381,0.0109800335925
1462275499.84,3.10791096999,10.3584652135,0.0545376260972,0.214873615028,0.000746564568099,0.00517759248826,0,0.221686767976,0.0111940155576
1462275499.87,3.16282187837,10.5759276248,0.054178506852,0.215650183366,0.000713114784851,0.00515429705631,0,0.222351775775,0.0114133696517
1462275499.87,3.21735694262,10.7941549567,0.0537937892041,0.216388390814,0.000679249922403,0.00513072263423,0,0.222974678912,0.0116382518437
1462275499.87,3.27149035678,11.0131087088,0.053383578344,0.217088731179,0.000644976078968,0.00510679466866,0,0.223556086121,0.0118683506072
1462275499.89,3.32519642317,11.2327508373,0.0529479833345,0.217751615331,0.000610292899144,0.00508252173307,0,0.224096530358,0.0121039173689
1462275499.91,3.37844955295,11.4530437135,0.052487110709,0.218377454323,0.000575207775305,0.00505790249705,0,0.224596547941,0.0123450078079
1462275499.91,3.43122426755,11.6739501191,0.0520010721146,0.218966649683,0.000539731827539,0.00503294300837,0,0.225056671029,0.0125916496941
1462275499.92,3.48349520557,11.8954332403,0.0514899878633,0.219519600838,0.000503873747175,0.00500764315817,0,0.225477435683,0.012843898026
1462275499.94,3.53523713031,12.1174566627,0.0509539843783,0.220036699116,0.000467637924789,0.0049820010105,0,0.225859375457,0.0131018911276
1462275499.94,3.58642493365,12.3399843623,0.050393189857,0.220518326124,0.000431025533039,0.00495602334736,0,0.226203018858,0.0133658739043
1462275499.95,3.63703363628,12.5629807001,0.0498077310822,0.220964862482,0.000394026065928,0.00492971895582,0,0.226508897236,0.0136363233731
1462275499.97,3.68703838039,12.7864104221,0.0491977220052,0.221376689809,0.000356642340012,0.00490308665265,0,0.226777544394,0.0139134166722
1462275499.97,3.73641442357,13.0102386552,0.0485632770583,0.221754180932,0.000318878096745,0.00487612087456,0,0.227009490197,0.0141973027513
1462275499.98,3.78513713967,13.2344308966,0.047904512052,0.222097695771,0.000280726082494,0.00484882554895,0,0.227205256853,0.0144883876551
1462275499.99,3.83318201477,13.4589530051,0.0472215333718,0.222407590893,0.000242185427188,0.00482118275071,0,0.227365366098,0.0147868699235
1462275499.99,3.88052464085,13.6837711874,0.046514444423,0.222684198171,0.000203260036395,0.00479319451208,0,0.227490319915,0.0150929515475
1462275500.01,3.92714071529,13.9088519828,0.0457833503702,0.22292784483,0.00016394741849,0.00476486320186,0,0.227580621257,0.0154069644078
1462275500.02,3.97300603937,14.1341622592,0.0450283518329,0.223138853871,0.000124252815825,0.00473618915316,0,0.227636773338,0.0157290916502
1462275500.02,4.01809651761,14.3596692077,0.0442495525557,0.223317542164,8.41724548143e-05,0.00470717738978,0,0.227659279493,0.0160597139407
1462275500.04,4.0623881564,14.5853403385,0.0434470505103,0.223464225162,4.37163174759e-05,0.00467783294722,0,0.227648646219,0.0163989558385
1462275500.05,4.10585706507,14.8111434802,0.0426209514913,0.223579216947,2.87972169659e-06,0.00464816169792,0,0.227605386045,0.0167472316206
1462275500.05,4.14847945642,15.037046778,0.0417713545887,0.223662831072,-3.83368329249e-05,0.00461814989527,0,0.227530015751,0.0171047918875
1462275500.07,4.19023164259,15.263018684,0.0408983574007,0.223715361348,-7.99361998293e-05,0.00458718604033,0,0.227423038721,0.0174698883229
1462275500.08,4.23109003189,15.4890276384,0.0400020527768,0.223736496441,-0.000121926815501,0.00455587901234,0,0.227284368283,0.0178453493872
1462275500.08,4.27103112126,15.7150420743,0.0390825234421,0.223726527944,-0.000164106027696,0.00452431616027,0,0.227114515046,0.0182279394439
1462275500.1,4.31003159169,15.9410307603,0.0381400490661,0.223685827222,-0.000206525889544,0.00449252430553,0,0.226914108514,0.0186190982223
1462275500.11,4.34806837781,16.1669628497,0.037174852713,0.223614784497,-0.000249488326289,0.00446073698815,0,0.226683791922,0.0190257034072
1462275500.11,4.38511848636,16.3928080027,0.036186857099,0.223514011056,-0.000293083074335,0.00442870393564,0,0.22642438421,0.0194488899808
1462275500.13,4.42115880192,16.6185363657,0.0351758985442,0.223383860692,-0.000337365064665,0.00439607642263,0,0.226136447871,0.0198889600771
1462275500.14,4.45616601793,16.8441182646,0.0341417628099,0.223224338372,-0.000382198154035,0.00436296914119,0,0.225820205494,0.0203440900877
1462275500.14,4.49011668167,17.0695240876,0.0330843733628,0.223035561363,-0.000427187127316,0.00432939930228,0,0.225476023988,0.0208071045717
1462275500.16,4.52298746146,17.2947243486,0.0320040425107,0.222817661452,-0.000472287847714,0.00429552934783,0,0.225104351339,0.0212781123086
1462275500.17,4.55475536005,17.5196897747,0.0309011195698,0.222570926984,-0.000517642696423,0.00426132080564,0,0.22470580039,0.0217602466646
1462275500.18,4.58539765827,17.7443913621,0.0297758073359,0.222295602833,-0.000563251261914,0.00422663487321,0,0.224280925942,0.0222535889184
1462275500.18,4.61489183998,17.9688002824,0.0286283049525,0.221991792953,-0.000609097228309,0.00419135054364,0,0.223830149852,0.0227580404185
1462275500.2,4.64321559632,18.1928877506,0.0274588235697,0.221659480626,-0.000655357049627,0.00415546139811,0,0.223353782917,0.0232777025204
1462275500.21,4.67034674136,18.4166249619,0.0262673971897,0.221298643184,-0.000702354658708,0.00411978543542,0,0.222852116055,0.0238216141351
1462275500.21,4.69626296122,18.6399834978,0.0250537416803,0.220910060047,-0.000749828486337,0.00408431614908,0,0.222326212135,0.0243847049294
1462275500.23,4.72094178866,18.8629357159,0.0238178349301,0.220494488672,-0.000797839061512,0.00404857046994,0,0.221777160221,0.0249673596981
1462275500.23,4.74436070406,19.0854544898,0.0225595959512,0.220052197959,-0.00084630742284,0.00401224078805,0,0.221205572254,0.0255678198072
1462275500.25,4.7664971463,19.3075128082,0.0212790227578,0.219583149972,-0.00089476753737,0.00397522876011,0,0.22061177793,0.0261770356146
1462275500.26,4.78732878529,19.5290835726,0.019976570116,0.219087211158,-0.000943532957504,0.00393787744048,0,0.219996066889,0.0268028357993
1462275500.26,4.80683358892,19.7501397224,0.0186523764154,0.218564586826,-0.000992636629032,0.0039002287056,0,0.219359043033,0.0274465325855
1462275500.29,4.82498964702,19.9706544236,0.0173065449906,0.218015519221,-0.00104206957743,0.00386223251345,0,0.21870135601,0.0281083980511
1462275500.29,4.84177515723,20.1906010591,0.0159391859049,0.2174401967,-0.00109181377451,0.00382390867517,0,0.218023615208,0.0287886656425
1462275500.29,4.85716843624,20.4099532101,0.0145504246878,0.216838823268,-0.001141865808,0.00378525000157,0,0.217326459813,0.029487829022
1462275500.32,4.87114792803,20.6286846584,0.0131403877022,0.216211591804,-0.00119216946071,0.00374628208584,0,0.216610531183,0.0302053131291
1462275500.32,4.883692231,20.8467693912,0.0117092538767,0.215558716412,-0.00124273885265,0.00370703255027,0,0.215876508327,0.0309420229273
1462275500.32,4.89478011545,21.0641816239,0.0102571847235,0.214880433983,-0.0012935806908,0.00366748817405,0,0.215125104874,0.031698645566
1462275500.34,4.90439050983,21.280895802,0.00878433195209,0.214176963714,-0.00134469976572,0.00362762560275,0,0.214357029914,0.0324758323662
1462275500.36,4.9125024919,21.4968865785,0.00729083954264,0.21344849753,-0.00139609444666,0.00358745327045,0,0.213572979188,0.0332741409229
1462275500.36,4.91909528422,21.7121288027,0.00577685019406,0.212695231785,-0.00144780409308,0.00354697223634,0,0.212773667596,0.034095021799
1462275500.36,4.92414823236,21.9265975206,0.00424246517896,0.211917359941,-0.00149980023773,0.00350617818925,0,0.211959821558,0.0349384247506
1462275500.38,4.92764079742,22.1402679696,0.00268781164241,0.211115067367,-0.00155208080187,0.0034650476287,0,0.211132176612,0.0358048772621
1462275500.38,4.92955256867,22.3531155608,0.00111301622372,0.210288512696,-0.00160473643304,0.00342357571003,0,0.210291458165,0.0366970234468
1462275500.39,4.92986321667,22.5651158613,-0.000481885805132,0.209437846638,-0.00165781093836,0.00338180273652,0,0.209438401012,0.0376164700717
1462275500.41,4.9285524254,22.7762446094,-0.00209690280862,0.208563256387,-0.00171124207712,0.00333965507703,0,0.20857379729,0.0385623786566
1462275500.41,4.92559990155,22.9864776933,-0.00373198198802,0.207664853235,-0.00176492119041,0.00329708625831,0,0.207698384583,0.0395328673233
1462275500.44,4.92098545897,23.1957910896,-0.00538696511486,0.206742700703,-0.00181888324639,0.00325413635598,0,0.206812871184,0.0405293549083
1462275500.44,4.91468905223,23.4041608585,-0.00706173139403,0.205796900318,-0.00187318607159,0.00321092195611,0,0.205918023084,0.0415536901956
1462275500.44,4.9066907278,23.6115632198,-0.00875621911631,0.204827665829,-0.0019277370534,0.00316745428293,0,0.205014741085,0.0426041145722
1462275500.47,4.89697064016,23.8179746128,-0.0104702770463,0.203835217709,-0.00198256517917,0.0031236413648,0,0.204103950672,0.0436818254902
1462275500.47,4.88550908052,24.0233716512,-0.012203785381,0.202819681893,-0.00203771761795,0.00307969723583,0,0.203186504819,0.0447881076598
1462275500.47,4.87228643633,24.2277311817,-0.0139566729389,0.201781391546,-0.00209314500399,0.00303537185054,0,0.202263488286,0.0459223688735
1462275500.49,4.85728319089,24.4310302592,-0.0157288215841,0.200720428128,-0.00214884050455,0.00299071658691,0,0.20133575464,0.0470847474425
1462275500.51,4.84047994905,24.6332460456,-0.0175201088469,0.199636921821,-0.0022048256977,0.00294571922348,0,0.200404228419,0.0482761011466
1462275500.51,4.82185742736,24.834355827,-0.0193304358537,0.198530988224,-0.00226120428224,0.00290041987377,0,0.199469844927,0.0494991836888
1462275500.51,4.80139638936,25.0343370252,-0.0211598073332,0.197402779935,-0.00231788793301,0.00285477898403,0,0.198533611695,0.0507520365432
1462275500.53,4.77907763806,25.2331671946,-0.0230081413609,0.196252407741,-0.00237481972463,0.00280882088783,0,0.197596513413,0.0520332577445
1462275500.54,4.75488208684,25.4308240128,-0.0248753018638,0.195080004056,-0.00243201634873,0.00276250915054,0,0.196659575474,0.0533433886039
1462275500.54,4.7287907768,25.6272852714,-0.0267611718483,0.193885662943,-0.00248951025894,0.00271586322536,0,0.195723812076,0.0546831549188
1462275500.56,4.70078484983,25.822528866,-0.0286656684651,0.192669495645,-0.00254726568338,0.00266888168729,0,0.194790284923,0.0560514652415
1462275500.57,4.67084554852,26.0165328025,-0.0305886754655,0.191431609785,-0.00260527678981,0.00262158782116,0,0.193860074001,0.0574477907754
1462275500.57,4.63895423466,26.2092752062,-0.0325300732102,0.190172133654,-0.00266357281848,0.00257402188322,0,0.192934305093,0.0588722905391
1462275500.59,4.60509237504,26.4007343508,-0.0344897731081,0.188891232427,-0.00272213963217,0.00252609554787,0,0.192014171708,0.0603243927592
1462275500.59,4.56924153211,26.590888631,-0.0364676744855,0.187588981415,-0.00278086119345,0.00247775564259,0,0.191100803847,0.0618006233346
1462275500.62,4.53138342703,26.7797164902,-0.0384635649653,0.186265402317,-0.00283997896572,0.00242924091734,0,0.190195283669,0.0633054848376
1462275500.62,4.49149987258,26.967196513,-0.0404774730524,0.184920750369,-0.00289947645753,0.0023804635055,0,0.189298995618,0.0648378017787
1462275500.62,4.4495726613,27.1533074951,-0.0425094105198,0.183555189597,-0.00295920675486,0.00233131689351,0,0.188413262832,0.0663929195055
1462275500.65,4.40558364741,27.3380283431,-0.0445592449291,0.182168776361,-0.00301917842654,0.00228183000586,0,0.18753930092,0.0679695736583
1462275500.65,4.35951481326,27.5213380345,-0.0466268548886,0.18076159424,-0.00307944630929,0.00223202544693,0,0.186678379972,0.069567573644
1462275500.65,4.31134823522,27.7032156415,-0.0487121751739,0.179333747293,-0.00313996804604,0.00218191483099,0,0.185831829696,0.0711838372973
1462275500.68,4.26106607602,27.8836403462,-0.0508151003555,0.177885348881,-0.00320078315571,0.00213153528198,0,0.185001004783,0.0728171262165
1462275500.68,4.20865058409,28.0625914627,-0.052935565841,0.17641654648,-0.00326188228566,0.00208079762826,0,0.184187328562,0.0744655657125
1462275500.68,4.15408407711,28.240048408,-0.0550734991641,0.174927397226,-0.0033231676782,0.00202970262679,0,0.183392160712,0.0761239424302
1462275500.71,4.0973489941,28.4159906565,-0.0572287335055,0.173417957856,-0.00338470395173,0.00197834840982,0,0.182616855864,0.0777905257281
1462275500.71,4.03842790862,28.5903977886,-0.0594011687081,0.17188838014,-0.00344644279878,0.00192667169737,0,0.181862899106,0.0794614385924
1462275500.71,3.97730351851,28.7632495046,-0.0615906592767,0.170338750801,-0.00350848354867,0.00187477073495,0,0.18113171819,0.0811352848386
1462275500.74,3.91395861746,28.9345256407,-0.0637971599689,0.168769251105,-0.00357074489539,0.00182254718516,0,0.180424881152,0.0828070518194
1462275500.74,3.84837608505,29.1042061654,-0.066020546767,0.167179962325,-0.00363322690227,0.00176999143064,0,0.179743852185,0.0844730997668
1462275500.74,3.78053892483,29.2722711235,-0.0682606981959,0.16557095468,-0.0036958993363,0.00171709388164,0,0.179090100095,0.0861286917363
1462275500.77,3.71043027696,29.4387006251,-0.0705174655815,0.163942287591,-0.00375877909341,0.00166387807943,0,0.178465085136,0.0877698461953
1462275500.77,3.63803342184,29.6034748517,-0.0727907197814,0.162294042357,-0.00382189016733,0.00161037452178,0,0.177870304072,0.0893923878176
1462275500.77,3.56333175697,29.7665740814,-0.0750803577498,0.160626328541,-0.00388525451495,0.00155657538052,0,0.177307296918,0.0909922694764
1462275500.8,3.48630877196,29.9279786976,-0.0773863000194,0.158939245843,-0.00394883132919,0.00150245271145,0,0.176777609724,0.0925637092092
1462275500.81,3.40694805628,30.0876691698,-0.0797084287217,0.157232864583,-0.0040126482075,0.0014480677654,0,0.176282748204,0.0941015281651
1462275500.81,3.32523330345,30.2456260683,-0.0820466553906,0.155507313702,-0.00407672723783,0.00139342468662,0,0.175824282383,0.0956008800401
1462275500.82,3.24114828444,30.4018300943,-0.0844009149758,0.153762723621,-0.00414107873097,0.00133850666949,0,0.175403790221,0.0970567295368
1462275500.84,3.1546768301,30.5562620713,-0.0867711538327,0.151999205684,-0.00420567935607,0.00128333326594,0,0.175022831842,0.0984624222203
1462275500.84,3.06580283659,30.7089029436,-0.089157296525,0.150216888171,-0.00427052104966,0.00122784860145,0,0.174682961434,0.099812907176
1462275500.86,2.97451027954,30.859733756,-0.0915592612231,0.148415842037,-0.00433559713743,0.00117207519353,0,0.174385665934,0.101101964988
1462275500.86,2.88078321975,31.0087356357,-0.0939769611933,0.146596158886,-0.00440087003666,0.00111605821398,0,0.174132429591,0.102322082148
1462275500.86,2.78460582354,31.1558898237,-0.0964102746054,0.144757972758,-0.00446637466516,0.00105980966433,0,0.17392473006,0.103468372416
1462275500.87,2.6859623616,31.3011777013,-0.0988591162852,0.142901426774,-0.00453214166837,0.0010033179042,0,0.17376404302,0.104536297171
1462275500.89,2.58483717448,31.444580787,-0.101323432794,0.141026649785,-0.00459809073765,0.00094656146372,0,0.173651818253,0.105518652325
1462275500.9,2.48121469632,31.5860807175,-0.103803093061,0.139133747023,-0.00466426656905,0.000889603144104,0,0.173589405466,0.10641036998
1462275500.91,2.37507946997,31.7256592661,-0.106298012438,0.137222883164,-0.00473073910943,0.000832343373607,0,0.173578187317,0.107210360262
1462275500.92,2.26641608798,31.8632983209,-0.108808176516,0.135294122007,-0.00479748812926,0.000774720634368,0,0.173619465287,0.107914795935
1462275500.92,2.1552091674,31.9989798033,-0.111333551353,0.133347465788,-0.00486444269521,0.000716750508989,0,0.173714438919,0.108517486123
1462275500.94,2.0414433947,32.1326856443,-0.113874034167,0.131382931972,-0.00493165368113,0.000658411882952,0,0.173864229993,0.109016666769
1462275500.96,1.92510353369,32.2643977822,-0.116429574091,0.129400516977,-0.00499906549302,0.000599731573245,0,0.17406992709,0.109407247553
1462275500.96,1.80617442685,32.394098165,-0.119000066792,0.12740024358,-0.00506669044624,0.000540719076692,0,0.174332549918,0.109686778709
1462275500.96,1.68464101484,32.5217687681,-0.121585422094,0.125382143403,-0.00513449739545,0.000481392662955,0,0.17465307541,0.109852065469
1462275500.97,1.56048834405,32.6473916078,-0.1241855211,0.123346265345,-0.00520240792516,0.000421727811531,0,0.175032410785,0.10990046127
1462275500.98,1.43370161898,32.7709487371,-0.126800170444,0.121292633293,-0.00527048507539,0.000361693966505,0,0.175471325623,0.109833554994
1462275501.0,1.304266206,32.8924222174,-0.129429242409,0.119221240715,-0.00533888386878,0.000301309458854,0,0.175970545911,0.109654209792
1462275501.01,1.17216752166,33.0117941128,-0.132072763752,0.11713209917,-0.00540755335515,0.000240659197012,0,0.176530857306,0.109359299236
1462275501.01,1.03739098123,33.1290465416,-0.134730710765,0.1150253032,-0.00547620869393,0.00017961901004,0,0.17715299828,0.108946617389
1462275501.03,0.899922166116,33.2441616543,-0.13740278107,0.112900823765,-0.0055450094039,0.000118307183839,0,0.177837342121,0.108418795791
1462275501.04,0.759746880344,33.3571216316,-0.140088834665,0.11075874833,-0.00561413257989,5.67750333776e-05,0,0.178584383218,0.107780310539
1462275501.04,0.616850979389,33.4679087675,-0.1427889079,0.108599212896,-0.00568365943677,-4.86920964013e-06,0,0.179394708007,0.107032276431
1462275501.06,0.471220241771,33.5765055458,-0.14550311599,0.106422456813,-0.00575349952095,-6.67118686239e-05,0,0.180268954834,0.106177717436
1462275501.07,0.322840376021,33.6828946467,-0.1482314832,0.104228630045,-0.00582357890218,-0.000128826024002,0,0.181207560364,0.105220581738
1462275501.07,0.17169710337,33.7870588637,-0.150973960861,0.102017807941,-0.00589385292864,-0.000191136528866,0,0.182210784519,0.104162426742
1462275501.09,0.0177762160447,33.8889811034,-0.153730457513,0.0997901379839,-0.00596434201597,-0.000253551617151,0,0.183278818215,0.10300606195
1462275501.11,-0.138936412477,33.9886444655,-0.156500903539,0.0975458546395,-0.0060350438716,-0.000316241136651,0,0.184411839549,0.101760810362
1462275501.11,-0.298454837951,34.0860321996,-0.159285228462,0.0952850212328,-0.00610597590576,-0.00037924829457,0,0.185609857706,0.100433472309
1462275501.11,-0.460793054366,34.1811275967,-0.162083380281,0.0930076574794,-0.00617703124361,-0.000442562309168,0,0.186872808383,0.0990279183846
1462275501.12,-0.625964950269,34.273913973,-0.164895203294,0.0907137932668,-0.00624839049586,-0.000506141359697,0,0.188200479166,0.0975517821749
1462275501.14,-0.79398434881,34.3643746956,-0.167720721914,0.088403498869,-0.00631982240455,-0.000569913194976,0,0.189592771939,0.0960060845261
1462275501.14,-0.964864981927,34.4524932379,-0.170559733432,0.0860769139606,-0.00639135641984,-0.000633859562367,0,0.191049359552,0.0943974253428
1462275501.15,-1.13862039357,34.5382532221,-0.173412068055,0.0837341933102,-0.0064630730333,-0.000698021944473,0,0.192569884656,0.0927344024953
1462275501.17,-1.31526399814,34.6216384044,-0.176277638266,0.0813754479384,-0.00653496534453,-0.000762420262248,0,0.194153983425,0.0910237816626
1462275501.17,-1.49480911908,34.7026326422,-0.179156351539,0.0790007671227,-0.00660700757277,-0.000827047061287,0,0.195801224467,0.0892714239259
1462275501.18,-1.6772689744,34.7812198858,-0.182048091929,0.0766102456601,-0.00667923570752,-0.000891909808235,0,0.197511107321,0.0874841497793
1462275501.19,-1.86265668419,34.8573841766,-0.184952781084,0.0742039691349,-0.00675161009636,-0.000957088042003,0,0.199283115858,0.0856694734765
1462275501.21,-2.05098527032,34.9311096017,-0.187870303357,0.071781943471,-0.00682427044974,-0.00102252799372,0,0.201116628581,0.0838332418844
1462275501.22,-2.2422677089,35.0023802811,-0.19080068233,0.0693442271677,-0.00689721992462,-0.00108823738862,0,0.203011138165,0.0819809830823
1462275501.22,-2.43651700119,35.0711803896,-0.19374394421,0.0668908699835,-0.00697044609141,-0.00115419419134,0,0.204966105503,0.0801171941596
1462275501.24,-2.63374616845,35.1374941625,-0.196700102495,0.0644219422764,-0.0070438902421,-0.00122039030176,0,0.206980957985,0.0782461792773
1462275501.25,-2.83396821606,35.2013059096,-0.199669112883,0.0619375209351,-0.00711754357825,-0.00128682988634,0,0.209055043323,0.076372771876
1462275501.25,-3.03719610074,35.2626000156,-0.202650923332,0.0594376772278,-0.00719140768376,-0.00135349092698,0,0.211187675307,0.0745010384573
1462275501.26,-3.24344272791,35.3213609474,-0.205645484395,0.0569225025748,-0.00726547238339,-0.00142038119451,0,0.213378153876,0.072635345944
1462275501.27,-3.4527209485,35.3775732594,-0.208652737643,0.0543920789527,-0.00733971691349,-0.0014874782726,0,0.215625747949,0.0707790846327
1462275501.29,-3.6650435446,35.4312215992,-0.211672605465,0.0518465086665,-0.00741405554136,-0.00155475213502,0,0.217929695924,0.0689349494699
1462275501.29,-3.88042317783,35.4822907318,-0.214704927786,0.0492859214008,-0.00748846517902,-0.00162222579364,0,0.220289146496,0.0671069356841
1462275501.3,-4.09887233821,35.5307655403,-0.217749525106,0.046710421695,-0.00756299891044,-0.00168983268533,0,0.222703208731,0.0652972726834
1462275501.32,-4.32040336277,35.5766310456,-0.220806273536,0.0441201772295,-0.00763772060605,-0.00175761751607,0,0.225171047144,0.0635100756242
1462275501.32,-4.54502849661,35.6198724141,-0.223875114259,0.0415153085192,-0.00771264276861,-0.00182554621693,0,0.227691869917,0.0617472612995
1462275501.33,-4.77275993225,35.6604749495,-0.226956001888,0.0388959670562,-0.0077877185228,-0.00189365319817,0,0.230264897555,0.060011593104
1462275501.34,-5.0036097934,35.69842409,-0.230048846002,0.0362622675809,-0.00786293814997,-0.00196195190662,0,0.232889294724,0.0583053086717
1462275501.36,-5.23759010848,35.7337053816,-0.233153548469,0.0336143093608,-0.00793832412548,-0.00203041934139,0,0.235564214085,0.056629802708
1462275501.36,-5.47471281901,35.7663044813,-0.236270035143,0.030952212219,-0.00801387841906,-0.00209900798723,0,0.23828883513,0.0549857499376
1462275501.37,-5.71498979336,35.7962071895,-0.23939823529,0.0282761401471,-0.00808962779365,-0.00216770056827,0,0.241062347043,0.0533742479718
1462275501.39,-5.95843284255,35.8233994794,-0.242538105822,0.0255862707873,-0.00816557797272,-0.00223654038006,0,0.243883968372,0.0517971423876
1462275501.4,-6.20505373736,35.84786748,-0.245689610119,0.0228827357991,-0.00824169081332,-0.00230554555724,0,0.246752921195,0.0502555048092
1462275501.4,-6.45486419288,35.869597443,-0.248852674914,0.020165646437,-0.00831794016152,-0.00237467434409,0,0.249668394291,0.0487492943264
1462275501.42,-6.70787583788,35.8885757523,-0.252027202774,0.017435152651,-0.00839433124107,-0.00244392867901,0,0.252629561782,0.0472791216993
1462275501.42,-6.96410020627,35.9047889406,-0.255213103335,0.0146913994926,-0.00847087267647,-0.00251335932093,0,0.255635610455,0.0458461666203
1462275501.43,-7.22354874595,35.9182236604,-0.258410296491,0.0119344793682,-0.00854765182416,-0.00258300603194,0,0.258685742031,0.0444512402287
1462275501.45,-7.48623286835,35.9288666368,-0.261618789349,0.00916444386957,-0.00862462037731,-0.00265279976971,0,0.261779254281,0.0430931966362
1462275501.45,-7.75216396789,35.9367046807,-0.264838541532,0.00638141121786,-0.00870177934487,-0.00272271885916,0,0.264915411952,0.0417716467509
1462275501.46,-8.02135339909,35.9417247325,-0.268069514459,0.00358551851153,-0.00877908378208,-0.00279278717115,0,0.268093492135,0.0404867568398
1462275501.48,-8.29381245544,35.9439138575,-0.271311626276,0.000776876713571,-0.00885658036848,-0.00286303526449,0,0.271312738533,0.0392386880647
1462275501.48,-8.5695523719,35.9432592165,-0.274564842512,-0.0020444353799,-0.00893422701527,-0.00293339533978,0,0.274572453934,0.0380261247753
1462275501.49,-8.84858432792,35.9397480835,-0.277829088137,-0.00487827410529,-0.00901203368205,-0.00300385157461,0,0.27787191253,0.0368484868435
1462275501.5,-9.1309194329,35.9333678836,-0.281104299382,-0.0077244831663,-0.00908999639713,-0.00307440168828,0,0.28121041014,0.0357053166725
1462275501.51,-9.41656873048,35.9241061996,-0.284390409864,-0.0105829071575,-0.00916814824295,-0.00314506411364,0,0.284587250499,0.0345963383302
1462275501.52,-9.70554321446,35.9119507604,-0.287687386945,-0.0134534118457,-0.00924648508278,-0.00321579843459,0,0.288001782802,0.0335204829569
1462275501.54,-9.99785384395,35.8968894493,-0.290995194587,-0.0163358260747,-0.00932500565216,-0.00328662367505,0,0.291453362455,0.0324774005106
1462275501.54,-10.2935115414,35.8789103114,-0.294313796234,-0.0192300007547,-0.00940367852078,-0.0033576466229,0,0.294941356176,0.03146770283
1462275501.55,-10.5925271769,35.8580014873,-0.29764312526,-0.0221358944301,-0.00948249172038,-0.00342877930914,0,0.298465119967,0.0304896317781
1462275501.57,-10.894911548,35.8341512033,-0.300983104641,-0.0250533802644,-0.00956149485576,-0.00349995613825,0,0.302024007559,0.0295417299808
1462275501.57,-11.2006754,35.8073478449,-0.304333707506,-0.0279822696746,-0.00964070661653,-0.00357123720018,0,0.305617429053,0.0286239587573
1462275501.58,-11.5098294609,35.7775799566,-0.307694925841,-0.0309224367373,-0.00972010183758,-0.0036426545278,0,0.309244829353,0.0277359245624
1462275501.6,-11.8223844376,35.7448361926,-0.311066727125,-0.0338737894398,-0.00979965957181,-0.00371420226362,0,0.31290564446,0.0268768024686
1462275501.62,-12.1383509945,35.7091053021,-0.314449058962,-0.0368362318694,-0.00987924228831,-0.00378602827532,0,0.316599303001,0.0260474369746
1462275501.62,-12.4577396746,35.6703760561,-0.317841735226,-0.0398098149418,-0.00995898344973,-0.00385801947163,0,0.320325131729,0.0252456726935
1462275501.62,-12.7805609016,35.6286372314,-0.321244704302,-0.0427944777252,-0.0100389482807,-0.00392982690538,0,0.324082593432,0.0244673195225
1462275501.63,-13.10682508,35.5838778402,-0.324657979531,-0.0457898185379,-0.0101191985499,-0.00400133380283,0,0.327871180732,0.0237107439278
1462275501.64,-13.4365426588,35.5360873548,-0.328081634519,-0.048795329294,-0.0101997008347,-0.00407316649307,0,0.331690432587,0.0229812316215
1462275501.65,-13.7697241438,35.4852554422,-0.331515708647,-0.0518111258713,-0.0102804266747,-0.00414518513465,0,0.335539949699,0.0222766062661
1462275501.66,-14.1063800658,35.4313717238,-0.334960212615,-0.0548371847858,-0.0103613532341,-0.00421733263698,0,0.339419299496,0.021595584154
1462275501.67,-14.446520955,35.3744258727,-0.338415134532,-0.0578734270743,-0.0104424611054,-0.00428959016529,0,0.343328030958,0.0209372816555
1462275501.68,-14.7901573201,35.3144076505,-0.341880443725,-0.0609197568948,-0.0105237563708,-0.00436195754329,0,0.347265682989,0.0203009681173
1462275501.69,-15.137299642,35.2513069149,-0.345356116094,-0.0639760801494,-0.0106052145501,-0.00443445148944,0,0.351231811991,0.019686105311
1462275501.7,-15.4879583654,35.185113609,-0.348842104031,-0.067042321006,-0.0106868543655,-0.00450707532098,0,0.355225965198,0.0190919869129
1462275501.71,-15.8421438966,35.1158177503,-0.352338379229,-0.0701184084005,-0.0107686985381,-0.00457976305341,0,0.359247720486,0.0185173838342
1462275501.72,-16.1998666251,35.0434094604,-0.355844936211,-0.0732042080248,-0.0108507890663,-0.00465251090557,0,0.363296675872,0.0179615772954
1462275501.72,-16.5611369558,34.9678789969,-0.359361810772,-0.0762995845518,-0.0109331162362,-0.00472528906058,0,0.367372478071,0.0174237533144
1462275501.75,-16.9259653247,34.8892167678,-0.362889028468,-0.0794043761401,-0.0110155832092,-0.00479813506698,0,0.371474766213,0.0169037534303
1462275501.75,-17.2943621448,34.8074133241,-0.366426519444,-0.0825184609829,-0.0110981697574,-0.00487107691139,0,0.375603102429,0.0164012208347
1462275501.76,-17.6663377491,34.7224593247,-0.369974195417,-0.0856417471364,-0.0111809615459,-0.00494408526452,0,0.379757046185,0.0159152364771
1462275501.78,-18.0419024253,34.6343455349,-0.373532053824,-0.0887741157529,-0.0112639448736,-0.00501716190951,0,0.383936243225,0.0154452781682
1462275501.79,-18.4210664515,34.5430628382,-0.377100078723,-0.0919154521092,-0.0113470765551,-0.00509028591375,0,0.388140335072,0.0149907382851
1462275501.79,-18.8038400685,34.4486022432,-0.380678212173,-0.0950656232625,-0.0114303501743,-0.00516349922677,0,0.39236892582,0.0145513810648
1462275501.81,-19.1902334558,34.3509548703,-0.3842663911,-0.0982245400395,-0.0115137718289,-0.0052368175176,0,0.396621632788,0.0141267701637
1462275501.82,-19.5802567328,34.2501119215,-0.387864559671,-0.101392130406,-0.0115973571453,-0.00531016289334,0,0.400898092733,0.0137158945209
1462275501.82,-19.9739199711,34.1460647096,-0.391472678479,-0.104568247433,-0.0116811321217,-0.00538345416613,0,0.405197947141,0.0133177810133
1462275501.84,-20.3712332156,34.0388047351,-0.395090734389,-0.107752667567,-0.0117651552152,-0.00545666357337,0,0.409520849003,0.0129317841001
1462275501.86,-20.7722065276,33.9283237358,-0.398718771812,-0.110945144518,-0.0118494243537,-0.00552980672682,0,0.413866505153,0.0125576263152
1462275501.86,-21.1768500116,33.8146136879,-0.402356832243,-0.11414545222,-0.0119338889848,-0.00560297586089,0,0.418234628785,0.0121955258782
1462275501.86,-21.5851737883,33.6976667477,-0.406004906803,-0.117353459519,-0.0120185748768,-0.00567618750876,0,0.422624915036,0.0118451229762
1462275501.87,-21.9971879826,33.5774751945,-0.409663012046,-0.120569054087,-0.0121034360061,-0.00574942404208,0,0.427037094691,0.0115059920143
1462275501.88,-22.4129027126,33.4540314283,-0.413331119091,-0.123792108567,-0.0121884527721,-0.00582269130289,0,0.431470856667,0.0111778109292
1462275501.9,-22.8323280581,33.3273279741,-0.417009180426,-0.127022503872,-0.0122736741522,-0.00589597107891,0,0.435925880225,0.0108600393383
1462275501.92,-23.2554740756,33.1973574847,-0.420697197487,-0.130260105452,-0.0123591345973,-0.00596921211937,0,0.440401892645,0.0105520207868
1462275501.92,-23.6823508404,33.0641127732,-0.424395205442,-0.13350473122,-0.0124448699445,-0.00604235648565,0,0.444898644256,0.0102531071174
1462275501.92,-24.1129684808,32.9275868637,-0.428103273879,-0.136756145952,-0.0125308201437,-0.00611545941414,0,0.449415905995,0.00996337245966
1462275501.93,-24.5473371647,32.7877729881,-0.431821412142,-0.140014173259,-0.0126169417405,-0.00618855867145,0,0.453953412475,0.00968276004537
1462275501.94,-24.9854670478,32.6446645355,-0.435549586805,-0.143278677291,-0.0127032367481,-0.0062616491206,0,0.458510874389,0.00941093831718
1462275501.96,-25.4273682529,32.4982550336,-0.439287767082,-0.146549519884,-0.0127897011658,-0.00633473122212,0,0.463088009007,0.00914762194917
1462275501.97,-25.8730508706,32.3485381481,-0.443035918883,-0.149826566084,-0.0128762905063,-0.00640769557796,0,0.467684536119,0.0088921181141
1462275501.97,-26.3225249347,32.1955077343,-0.446793965202,-0.153109576428,-0.0129630537787,-0.0064805281017,0,0.472300105584,0.0086440635944
1462275501.99,-26.7758004268,32.0391578938,-0.450561878601,-0.15639830244,-0.013050009927,-0.00655329652178,0,0.476934414206,0.00840349347251
1462275502.0,-27.2328873104,31.8794829431,-0.454339650757,-0.159692566982,-0.0131372052549,-0.00662604283894,0,0.48158720311,0.00817027349565
1462275502.0,-27.6937955638,31.7164773547,-0.458127318892,-0.162992237625,-0.0132245960412,-0.0066987691714,0,0.48625827483,0.00794422887315
1462275502.02,-28.1585351807,31.5501357325,-0.461924876634,-0.16629718666,-0.0133122227566,-0.006771442702,0,0.490947396311,0.00772493496499
1462275502.03,-28.6271161687,31.3804528245,-0.465732357403,-0.169607256775,-0.0134001201654,-0.00684405517297,0,0.495654365746,0.00751209408878
1462275502.03,-29.0995485862,31.2074235401,-0.469549828017,-0.172922285709,-0.0134882592769,-0.00691635909127,0,0.500379014234,0.00730461287077
1462275502.05,-29.5758425438,31.0310430749,-0.473377325548,-0.176241871904,-0.0135764829331,-0.00698847188936,0,0.505121064454,0.00710302176152
1462275502.07,-30.0560081109,30.851306967,-0.477214732312,-0.179565736918,-0.0136649694766,-0.00706080912843,0,0.509880137493,0.00690841235403
1462275502.07,-30.5400553279,30.6682108255,-0.481062107753,-0.182894015125,-0.0137536122876,-0.00713308609266,0,0.514656168994,0.00671963755213
1462275502.07,-31.0279942418,30.4817502673,-0.484919405639,-0.186226559193,-0.0138423989528,-0.00720529732162,0,0.519448901543,0.00653650733568
1462275502.08,-31.5198348469,30.2919210595,-0.4887865685,-0.189563219385,-0.0139314016263,-0.0072774360883,0,0.524258069742,0.00635872329884
1462275502.09,-32.0155871162,30.0987191221,-0.492663610724,-0.192903842364,-0.0140206675219,-0.00734951189537,0,0.529083477091,0.00618608663736
1462275502.11,-32.5152610607,29.9021405238,-0.496550592681,-0.196248287174,-0.0141101466986,-0.00742149786458,0,0.53392497723,0.0060184104671
1462275502.12,-33.0188667268,29.7021814876,-0.500447524592,-0.199596389338,-0.0141997671091,-0.00749337598996,0,0.538782371192,0.0058555760001
1462275502.12,-33.5264141349,29.4988384103,-0.504354345867,-0.202947970021,-0.0142895806713,-0.00756510026471,0,0.543655391522,0.00569722588451
1462275502.14,-34.0379132711,29.2921078902,-0.508271048008,-0.20630280888,-0.014379641181,-0.00763665183251,0,0.548543806085,0.00554310732155
1462275502.15,-34.5533741397,29.0819867554,-0.512197675405,-0.209660671498,-0.0144699390262,-0.00770802538897,0,0.553447428274,0.00539310015755
1462275502.15,-35.0728067846,28.8684720712,-0.516134262142,-0.21302132295,-0.0145604376038,-0.00777915632387,0,0.558366063249,0.00524694539482
1462275502.17,-35.5962212656,28.6515611701,-0.520080805751,-0.216384469688,-0.0146512268801,-0.00785014304923,0,0.563299461417,0.00510472548268
1462275502.18,-36.1236276848,28.4312516288,-0.524037391979,-0.219749920482,-0.0147423632319,-0.00792105022341,0,0.56824749515,0.00496644479517
1462275502.18,-36.6550362583,28.2075411833,-0.528004160107,-0.223117551292,-0.0148337647399,-0.00799187565362,0,0.573210113993,0.00483207226056
1462275502.2,-37.1904573008,27.9804276941,-0.531981166349,-0.226487238406,-0.0149253124448,-0.00806262056647,0,0.578187193313,0.00470162878464
1462275502.21,-37.7299011234,27.7499091454,-0.535968349218,-0.229858861793,-0.0150169764767,-0.00813304714221,0,0.583178504155,0.00457438145645
1462275502.21,-38.2733779609,27.5159837601,-0.539965619181,-0.233232070757,-0.0151087912914,-0.00820318694198,0,0.588183703215,0.00445030618905
1462275502.22,-38.8208979757,27.2786500959,-0.543972922263,-0.236606552545,-0.015200872665,-0.00827313404831,0,0.593202495665,0.00432944384233
1462275502.23,-39.3724713343,27.0379069763,-0.54799031903,-0.239982092861,-0.0152932140274,-0.00834288087259,0,0.598234732061,0.00421169627609
1462275502.25,-39.9281082603,26.793753443,-0.552017862396,-0.243358474259,-0.0153857959761,-0.00841248413623,0,0.603280256098,0.00409714499061
1462275502.25,-40.4878190207,26.5461887267,-0.556055585205,-0.246735539228,-0.0154785886782,-0.00848196126524,0,0.608338918823,0.00398577229638
1462275502.26,-41.0516139002,26.2952122068,-0.560103490405,-0.250113150483,-0.0155716090127,-0.00855126465796,0,0.613410554204,0.00387734857861
1462275502.27,-41.6195031952,26.040823424,-0.564161597429,-0.253491126838,-0.0156648335066,-0.00862044293835,0,0.618494995453,0.00377193255018
1462275502.29,-42.1914972093,25.7830220757,-0.568229902317,-0.256869338381,-0.015758279591,-0.00868948762806,0,0.623592077313,0.00366939502599
1462275502.29,-42.7676062515,25.5218079935,-0.57230841827,-0.260247649489,-0.0158519312804,-0.00875837879983,0,0.62870164998,0.0035696214581
1462275502.29,-43.3478406354,25.2571811546,-0.57639714256,-0.263625907723,-0.0159457694143,-0.00882715089025,0,0.633823544193,0.00347262973483
1462275502.31,-43.9322106626,24.9891416714,-0.580496053734,-0.267003997441,-0.0160398126402,-0.00889577735092,0,0.638957590964,0.00337825683669
1462275502.32,-44.5207266227,24.7176897853,-0.584605149047,-0.270381779296,-0.0161340849529,-0.0089640616438,0,0.644103630534,0.00328597212314
1462275502.32,-45.1133988142,24.4428259752,-0.58872444932,-0.273758924121,-0.016228484999,-0.00903196894841,0,0.649261446386,0.00319576353839
1462275502.35,-45.710237506,24.1645510666,-0.592853875633,-0.277135075208,-0.016323154608,-0.00909958988773,0,0.654430720369,0.00310764452778
1462275502.35,-46.311252959,23.8828661964,-0.596993489636,-0.280509971794,-0.0164180928012,-0.00916698604176,0,0.659611302923,0.00302169840241
1462275502.36,-46.916455495,23.5977727316,-0.601143350788,-0.283883418679,-0.0165133297683,-0.00923410267896,0,0.664803071291,0.00293772886338
1462275502.38,-47.5258555107,23.3092722616,-0.605303546945,-0.287255170931,-0.0166088889995,-0.00930099449802,0,0.670005908311,0.00285578009396
1462275502.38,-48.1394635021,23.0173665934,-0.609474187226,-0.29062504212,-0.0167047109023,-0.00936760065675,0,0.675219742012,0.00277573782946
1462275502.38,-48.7572900448,22.722057751,-0.613655320166,-0.293992789921,-0.0168007187255,-0.00943399807465,0,0.680444422781,0.00269778095133
1462275502.41,-49.3793457243,22.423347962,-0.617846918113,-0.297358252236,-0.0168970095534,-0.00950012034923,0,0.68567976811,0.00262163533976
1462275502.41,-50.0056411472,22.1212396496,-0.622049049114,-0.300721205134,-0.0169935748543,-0.00956599960119,0,0.690925656435,0.00254732827649
1462275502.42,-50.6361869838,21.8157354447,-0.626261771489,-0.30408146064,-0.0170903078894,-0.00963166321986,0,0.696181974151,0.00247496144046
1462275502.43,-51.2709939092,21.5068381524,-0.63048503779,-0.307438861383,-0.0171872842801,-0.00969704914967,0,0.701448527239,0.00240430066257
1462275502.44,-51.9100725891,21.1945507665,-0.634718875629,-0.310793192322,-0.0172844914509,-0.00976215362183,0,0.706725165445,0.00233531054273
1462275502.44,-52.5534337105,20.8788764973,-0.638963299738,-0.314144239025,-0.0173819474398,-0.00982701494263,0,0.712011728362,0.0022680041724
1462275502.47,-53.2010879839,20.5598187508,-0.643218342235,-0.317491828888,-0.0174796647854,-0.00989166993589,0,0.717308090849,0.00220239248287
1462275502.47,-53.8530461586,20.237381087,-0.64748404688,-0.320835828847,-0.0175776452229,-0.00995606552516,0,0.722614157096,0.00213833732766
1462275502.47,-54.509319028,19.9115672254,-0.651760458261,-0.324176056485,-0.0176758317879,-0.0100201510433,0,0.727929811555,0.0020757635168
1462275502.5,-55.1699174022,19.5823810934,-0.656047564247,-0.327512283378,-0.0177741413354,-0.0100838753284,0,0.733254868595,0.00201462203181
1462275502.5,-55.8348520371,19.2498268723,-0.660345271471,-0.330844235532,-0.0178726406965,-0.0101471918252,0,0.738589050649,0.00195475167425
1462275502.51,-56.5041336289,18.9139090409,-0.664653553924,-0.33417159881,-0.0179714728783,-0.0102102712635,0,0.743932123379,0.00189629093097
1462275502.53,-57.1777729193,18.5746323064,-0.668972526267,-0.337494232672,-0.0180705839354,-0.0102730988713,0,0.749284056941,0.00183922486888
1462275502.53,-57.8557807375,18.2320015243,-0.673302247998,-0.340811984913,-0.0181699308135,-0.010335598794,0,0.754644768231,0.00178343425641
1462275502.54,-58.5381679509,17.88602174,-0.677642735235,-0.344124632033,-0.0182695221889,-0.0103977554853,0,0.760014104467,0.00172886128667
1462275502.55,-59.2249454473,17.5366982303,-0.681994012276,-0.347431939768,-0.018369365252,-0.0104595815603,0,0.765391916309,0.00167549508336
1462275502.56,-59.9161241422,17.1840364997,-0.686356109977,-0.350733690901,-0.0184694523421,-0.010521072781,0,0.77077806899,0.00162330991432
1462275502.57,-60.6117149783,16.8280422724,-0.690729051073,-0.354029668409,-0.0185697675385,-0.0105822195613,0,0.776172421637,0.00157227893016
1462275502.58,-61.3117289132,16.4687214942,-0.695112842239,-0.35731965021,-0.0186703120389,-0.0106430138071,0,0.781574817834,0.00152236540404
1462275502.59,-62.0161769114,16.1060803371,-0.699507491192,-0.360603410737,-0.0187710976648,-0.0107034505083,0,0.786985101555,0.00147353058289
1462275502.6,-62.7250699514,15.7401252011,-0.70391301708,-0.363880724021,-0.0188721142565,-0.0107635256631,0,0.792403127788,0.00142575472492
1462275502.62,-63.4384190257,15.3708627143,-0.70832942871,-0.36715136469,-0.0189733683,-0.0108232203602,0,0.797828743635,0.00137898549552
1462275502.62,-64.1562351385,14.9982997394,-0.71275674107,-0.370415093349,-0.019074869031,-0.0108825183311,0,0.803261796254,0.00133317502451
1462275502.63,-64.8785293141,14.6224433869,-0.717194977899,-0.373671659447,-0.0191766275731,-0.0109414023773,0,0.808702136387,0.00128827532444
1462275502.65,-65.6053126058,14.2433010262,-0.721644173362,-0.376920800587,-0.0192786364973,-0.0109999154384,0,0.814149619458,0.00124433433003
1462275502.65,-66.3365960974,13.8608802679,-0.726104353662,-0.380162301705,-0.019380894371,-0.0110580546494,0,0.81960411666,0.00120133032955
1462275502.66,-67.0723908982,13.4751889389,-0.730575543073,-0.383395949228,-0.0194833408226,-0.0111157851759,0,0.82506549923,0.00115924074624
1462275502.68,-67.8127081117,13.0862350971,-0.735057706217,-0.386621499715,-0.019586013986,-0.0111731087716,0,0.830533572778,0.00111802459106
1462275502.68,-68.5575588249,12.694027043,-0.739550845799,-0.389838716317,-0.0196889234538,-0.0112300134976,0,0.836008180739,0.00107764432077
1462275502.69,-69.3069541325,12.2985733199,-0.744054973868,-0.393047355219,-0.0197920638761,-0.0112865011595,0,0.841489172588,0.00103809119733
1462275502.71,-70.0609051383,11.8998827141,-0.748570096989,-0.396247179251,-0.0198954346605,-0.0113425511923,0,0.846976397056,0.000999325465446
1462275502.71,-70.8194229526,11.4979642593,-0.753096221017,-0.399437935834,-0.0199990459448,-0.0113981628451,0,0.852469696056,0.000961326639927
1462275502.71,-71.5825186966,11.092827242,-0.757633361622,-0.402619376706,-0.0201029036183,-0.01145333443,0,0.85796892318,0.000924076359873
1462275502.74,-72.35020351,10.6844811981,-0.762181539936,-0.405791256913,-0.0202070124123,-0.011508057609,0,0.86347393939,0.000887549557661
1462275502.74,-73.1224885562,10.2729359124,-0.766740781301,-0.408953328231,-0.0203113603547,-0.0115623251698,0,0.868984608829,0.00085173389409
1462275502.75,-73.8993850176,9.85820142157,-0.771311098823,-0.412105340333,-0.0204159515765,-0.0116161322832,0,0.874500784847,0.000816609999629
1462275502.77,-74.6809040922,9.4402880151,-0.775892509391,-0.415247043164,-0.0205207791105,-0.0116694653895,0,0.880022325277,0.000782155931455
1462275502.77,-75.4670569912,9.01920623924,-0.780485022732,-0.418378178382,-0.0206258368787,-0.0117223276178,0,0.885549078739,0.000748368862647
1462275502.78,-76.2578549324,8.59496689705,-0.785088642418,-0.42149849588,-0.0207311236155,-0.0117747245737,0,0.891080893344,0.000715245280032
1462275502.8,-77.0533091366,8.16758103888,-0.789703370713,-0.424607756045,-0.0208366321703,-0.011826646622,0,0.896617622071,0.000682767900711
1462275502.81,-77.8534308234,7.73705995952,-0.794329202826,-0.427705714614,-0.0209423660053,-0.0118780835371,0,0.902159110565,0.000650913173499
1462275502.82,-78.6582312092,7.30341520314,-0.798966137454,-0.430792122188,-0.0210483191372,-0.0119290129868,0,0.907705206186,0.000619651051866
1462275502.83,-79.4677215062,6.86665857446,-0.80361416746,-0.433866712471,-0.0211545011716,-0.0119794293268,0,0.91325574421,0.000588961779278
1462275502.84,-80.2819129243,6.42680214733,-0.808273295259,-0.436929218962,-0.0212609086792,-0.0120293377626,0,0.918810569275,0.000558844997518
1462275502.84,-81.1008166739,5.98385825948,-0.812943519859,-0.43997938559,-0.0213675333645,-0.0120787210018,0,0.924369529044,0.000529279274178
1462275502.86,-81.9244439604,5.53783951339,-0.817624832159,-0.44301694446,-0.0214743680052,-0.0121275844984,0,0.929932459505,0.000500266680253
1462275502.87,-82.7528059766,5.08875877668,-0.822317216161,-0.446041638379,-0.0215814117116,-0.0121759290578,0,0.935499196773,0.000471800399077
1462275502.87,-83.5859138986,4.63662917377,-0.827020655315,-0.449053216088,-0.0216886779753,-0.0122237500775,0,0.941069580423,0.00044386036472
1462275502.88,-84.4237788929,4.18146408265,-0.831735146625,-0.452051426842,-0.0217961666874,-0.0122710438101,0,0.946643463317,0.00041643540766
1462275502.89,-85.2664121229,3.7232771339,-0.836460687046,-0.45503602124,-0.0219038806654,-0.0123178162651,0,0.952220700047,0.000389522493324
1462275502.9,-86.1138247502,3.26208220453,-0.841197276357,-0.458006760755,-0.022011836044,-0.0123640520636,0,0.957801154023,0.000363090805598
1462275502.91,-86.9660279446,2.79789341774,-0.845944930153,-0.460963396562,-0.0221200241328,-0.0124097400695,0,0.963384698768,0.000337127973867
1462275502.92,-87.8230328868,2.33072515114,-0.8507036552,-0.463905673899,-0.0222284193914,-0.0124548549708,0,0.968971198357,0.000311617356928
1462275502.93,-88.6848507517,1.86059204976,-0.8554734331,-0.466833318292,-0.0223370220566,-0.0124994169576,0,0.974560486479,0.000286572110659
1462275502.94,-89.5514926959,1.38750902299,-0.860254246053,-0.469746080545,-0.0224458340974,-0.0125434323298,0,0.980152410618,0.000261990396647
1462275502.95,-90.422969859,0.91149122628,-0.865046078547,-0.472643722617,-0.0225548259884,-0.0125868868234,0,0.985746826797,0.000237866965377
1462275502.96,-91.2992933505,0.432554060252,-0.869848886445,-0.475525997251,-0.022663994998,-0.0126297797824,0,0.991343562703,0.000214195555266
1462275502.96,-92.1804742345,-0.0492868268908,-0.874662623814,-0.478392661493,-0.0227733585687,-0.0126721004241,0,0.996942447721,0.00019095116895
1462275502.98,-93.0665235376,-0.534015538596,-0.879487262735,-0.481243466679,-0.022882936871,-0.0127138635511,0,1.00254332552,0.000168131084102
1462275502.99,-93.9574522687,-1.02161593705,-0.884322795614,-0.484078183625,-0.0229927353985,-0.0127550545496,0,1.00814606814,0.000145713837863
1462275503.0,-94.853271432,-1.51207164795,-0.889169220392,-0.486896573412,-0.0231027667218,-0.0127956437048,0,1.01375054905,0.000123662822034
1462275503.01,-95.7539920358,-2.00536604321,-0.894026547372,-0.489698372774,-0.023213021406,-0.0128356335639,0,1.01935664206,0.000101980952257
1462275503.02,-96.6596250939,-2.50148223277,-0.898894777402,-0.492483326211,-0.0233234682307,-0.012875040642,0,1.02496421764,8.06922051017e-05
1462275503.03,-97.5701816054,-3.0004030793,-0.90377388072,-0.495251199516,-0.0234341086347,-0.0129138694415,0,1.03057313088,5.9793853775e-05
1462275503.04,-98.4856725404,-3.50211121354,-0.908663829568,-0.498001767579,-0.0235449083639,-0.0129520827435,0,1.03618324426,3.9264854559e-05
1462275503.05,-99.4061088242,-4.00658902249,-0.913564563173,-0.500734773316,-0.0236558576236,-0.0129896763047,0,1.04179437717,1.91010189948e-05
1462275503.07,-100.331501316,-4.51381863396,-0.918476012381,-0.503449960628,-0.0237669592237,-0.0130266442856,0,1.04740634339,-7.08737399463e-07
1462275503.08,-101.261860808,-5.02378191673,-0.923398112173,-0.506147072815,-0.0238782322004,-0.0130630013,0,1.05301896131,-2.01659874918e-05
1462275503.08,-102.197198036,-5.53646049019,-0.928330817485,-0.508825872633,-0.0239896850883,-0.0130987421628,0,1.05863207743,-3.92835459593e-05
1462275503.1,-103.137523696,-6.05183573391,-0.933274092522,-0.5114861225,-0.0241013297482,-0.0131338446641,0,1.06424554746,-5.80883130968e-05
1462275503.11,-104.082848454,-6.56988877874,-0.938227913825,-0.514127567821,-0.0242131743852,-0.0131682941218,0,1.06985923106,-7.65984244809e-05
1462275503.11,-105.033182955,-7.09060049362,-0.943192266446,-0.516749944704,-0.0243252169627,-0.0132020917411,0,1.07547299215,-9.48148107332e-05
1462275503.53,-105.98853783,-7.6139514842,-0.948167133741,-0.519352995716,-0.0244374223778,-0.0132352283344,0,1.08108669757,-0.000112732830247
1462275503.53,-106.948923675,-8.13992209408,-0.953152464996,-0.521936459569,-0.0245497762893,-0.0132677120042,0,1.08670018375,-0.000130344052371
1462275503.53,-107.914351028,-8.66849240965,-0.95814819646,-0.524500088142,-0.024662255993,-0.0132995212231,0,1.09231328328,-0.00014765931643
1462275503.53,-108.884830352,-9.1996422584,-0.963154243404,-0.527043617178,-0.0247748614247,-0.0133306719617,0,1.09792580396,-0.000164670802173
1462275503.53,-109.860372026,-9.73335121156,-0.968170522732,-0.529566803357,-0.0248876145868,-0.0133611599648,0,1.10353756633,-0.000181394753487
1462275503.53,-110.840986356,-10.2695985949,-0.973196974572,-0.532069404055,-0.0250005272907,-0.0133910000048,0,1.10914841299,-0.000197829091789
1462275503.55,-111.826683595,-10.808363499,-0.978233551826,-0.534551195979,-0.0251135671685,-0.0134201573909,0,1.11475820833,-0.000213990010556
1462275503.55,-112.81747393,-11.3496247736,-0.983280176614,-0.537011926302,-0.0252267545593,-0.0134486585049,0,1.12036677687,-0.000229870403826
1462275503.55,-113.813367484,-11.8933610292,-0.98833679255,-0.539451373111,-0.0253400650826,-0.0134764774157,0,1.12597397814,-0.00024548316791
1462275503.55,-114.814374309,-12.439550641,-0.99340332048,-0.541869293516,-0.0254535056024,-0.0135035995835,0,1.13157964298,-0.000260844550688
1462275503.55,-115.820504382,-12.9881717343,-0.998479689561,-0.544265435237,-0.0255670854164,-0.0135300289395,0,1.13718360631,-0.000275958373851
1462275503.55,-116.831767615,-13.539202184,-1.00356583948,-0.546639554893,-0.0256807988043,-0.013555733508,0,1.14278571795,-0.000290847080479
1462275503.55,-117.848173854,-14.0926196057,-1.00866170552,-0.548991382633,-0.0257946464014,-0.0135807119965,0,1.14838581251,-0.000305513813817
1462275503.55,-118.869732882,-14.6484013443,-1.01376722488,-0.551320652737,-0.0259086405509,-0.0136049823535,0,1.15398372968,-0.000319953232686
1462275503.55,-119.896454427,-15.2065244882,-1.01888234812,-0.553627122389,-0.0260227685274,-0.0136285292401,0,1.15957933319,-0.000334173354771
1462275503.55,-120.92834816,-15.7669658752,-1.02400701432,-0.555910538596,-0.0261370283996,-0.0136513385479,0,1.1651724732,-0.000348184924689
1462275503.55,-121.965423688,-16.3297020831,-1.02914116186,-0.558170639601,-0.0262514206068,-0.0136734032527,0,1.17076299649,-0.000361994506689
1462275503.55,-123.00769056,-16.8947094243,-1.03428473082,-0.560407161997,-0.0263659305804,-0.0136947389239,0,1.17635075195,-0.000375588924953
1462275503.55,-124.055158257,-17.4619639558,-1.03943764817,-0.562619862903,-0.0264805190803,-0.0137153209536,0,1.18193558816,-0.000388972898491
1462275503.55,-125.107836164,-18.0314414792,-1.04459980391,-0.564808480179,-0.0265951839259,-0.0137351430459,0,1.18751731339,-0.000402152210345
1462275503.55,-126.16573356,-18.6031175309,-1.04977108808,-0.566972750761,-0.0267099382937,-0.0137542290055,0,1.19309573692,-0.000415119010276
1462275503.55,-127.228859617,-19.1769673961,-1.05495140584,-0.569112440171,-0.0268247792801,-0.0137725517439,0,1.19867069633,-0.000427891930897
1462275503.55,-128.297223413,-19.7529661122,-1.06014066142,-0.571227292076,-0.0269397168385,-0.0137900979142,0,1.20424201937,-0.000440484546573
1462275503.55,-129.370833933,-20.3310884532,-1.06533877069,-0.573317042191,-0.0270547618963,-0.0138068786654,0,1.20980954171,-0.000452895346555
1462275503.55,-130.449700084,-20.9113089347,-1.07054566194,-0.575381442439,-0.0271698833939,-0.0138228873796,0,1.21537311909,-0.000465120175105
1462275503.55,-131.533830688,-21.4936018209,-1.07576123443,-0.577420243222,-0.0272850705003,-0.0138381244567,0,1.2209325824,-0.000477157622049
1462275503.55,-132.623234458,-22.0779411263,-1.08098537883,-0.579433200325,-0.0274003287497,-0.0138526072117,0,1.22648775896,-0.000489001775238
1462275503.55,-133.717920001,-22.6643006302,-1.08621799342,-0.581420091386,-0.0275156642399,-0.0138663318965,0,1.23203849449,-0.000500659620803
1462275503.55,-134.817895826,-23.2526538876,-1.09145898451,-0.583380694817,-0.0276310702434,-0.013879222888,0,1.23758464355,-0.000512175321379
1462275503.55,-135.923170346,-23.8429741938,-1.09670825366,-0.585314719351,-0.0277465602365,-0.013891263585,0,1.24312602512,-0.000523563116647
1462275503.55,-137.03375188,-24.435234545,-1.10196571762,-0.587221863277,-0.027862119078,-0.0139024683517,0,1.24866246821,-0.000534810352279
1462275503.55,-138.149648657,-25.0294076424,-1.10723127996,-0.589101844996,-0.0279777256723,-0.0139128734524,0,1.25419380125,-0.000545891182765
1462275503.55,-139.2708688,-25.6254659241,-1.11250482552,-0.59095442408,-0.0280933639178,-0.0139224814379,0,1.25971985701,-0.000556801654996
1462275503.55,-140.397420307,-26.2233815889,-1.11778622565,-0.592779367407,-0.0282090224082,-0.0139312679836,0,1.26524046121,-0.000567554429041
1462275503.55,-141.529311044,-26.8231265903,-1.1230753431,-0.594576422683,-0.0283247118421,-0.0139392142604,0,1.27075542442,-0.000578165018367
1462275503.55,-142.666548743,-27.4246726202,-1.12837205384,-0.596345324205,-0.028440426661,-0.0139462980405,0,1.27626456411,-0.000588645342351
1462275503.55,-143.80914101,-28.0279910934,-1.13367623089,-0.5980857898,-0.0285561381882,-0.0139525181093,0,1.28176768896,-0.000598988908705
1462275503.56,-144.95709531,-28.6330531422,-1.1389877217,-0.599797541751,-0.028671849866,-0.013957970467,0,1.28726458868,-0.000609146907227
1462275503.56,-146.110418957,-29.2398296692,-1.14430638013,-0.601480401974,-0.0287875975974,-0.0139627109409,0,1.29275510657,-0.000619103658068
1462275503.56,-147.269119136,-29.8482914267,-1.14963209818,-0.603134250657,-0.0289033238863,-0.013966576579,0,1.29823914803,-0.0006289335784
1462275503.56,-148.433202896,-30.4584089656,-1.15496471362,-0.604758810691,-0.0290190698273,-0.0139695448344,0,1.30371649864,-0.000638661040251
1462275503.56,-149.602677144,-31.0701525487,-1.16030410778,-0.606353788415,-0.0291348548814,-0.0139716722745,0,1.30918697643,-0.000648262299197
1462275503.56,-150.77754868,-31.6834921733,-1.16565018341,-0.607918951475,-0.0292505937045,-0.013972902776,0,1.31465044846,-0.000657744700362
1462275503.56,-151.95782416,-32.2983975761,-1.17100276157,-0.609454017166,-0.0293662763237,-0.0139732733648,0,1.3201066876,-0.000667088118749
1462275581.87,-153.14351006,-32.91483823,-1.17636165714,-0.610958744721,-0.0294819063669,-0.0139727748908,0,1.3255554821,-0.000676300539747
1462275581.87,-154.33461267,-33.5327833622,-1.18172669223,-0.612432889219,-0.0295974891593,-0.0139713866441,0,1.33099662619,-0.000685395850947
1462275581.87,-155.531138107,-34.1522019447,-1.18709769776,-0.613876190346,-0.0297130143968,-0.0139691029961,0,1.33642991627,-0.000694375761144
1462275581.91,-156.733092312,-34.7730626865,-1.19247449792,-0.615288387475,-0.0298284678874,-0.0139659004831,0,1.34185514417,-0.000703249829125
1462275581.91,-157.940481044,-35.3953340243,-1.19785690649,-0.616669202199,-0.0299438443287,-0.0139618367435,0,1.34727208587,-0.000711989763335
1462275581.91,-159.153309872,-36.0189841448,-1.2032447358,-0.618018418164,-0.0300591459174,-0.0139569431395,0,1.35268054596,-0.000720583520105
1462275581.91,-160.371584181,-36.6439810346,-1.20863780408,-0.619335854077,-0.0301743596015,-0.0139511695373,0,1.35808035168,-0.000729055334748
1462275581.91,-161.595309165,-37.2702924734,-1.21403592041,-0.620621283142,-0.0302894734615,-0.0139444975422,0,1.36347130265,-0.000737413398095
1462275581.91,-162.824489822,-37.8978860053,-1.219438886,-0.621874465071,-0.0304044854145,-0.0139369392084,0,1.36885318679,-0.000745653515871
1462275581.91,-164.059130951,-38.52672894,-1.22484650398,-0.623095176194,-0.0305193980879,-0.0139284954041,0,1.37422580274,-0.00075377821616
1462275581.91,-165.299237154,-39.1567883639,-1.23025858403,-0.624283198166,-0.030634205296,-0.0139191577381,0,1.37958895874,-0.000761792217241
1462275581.91,-166.54481284,-39.7880311409,-1.23567493354,-0.625438308786,-0.0307488830643,-0.0139089074235,0,1.38494246071,-0.00076970074851
1462275581.91,-167.795862216,-40.4204239034,-1.24109534027,-0.626560271885,-0.0308634537413,-0.0138977705051,0,1.39028609212,-0.000777499034773
1462275581.91,-169.052389283,-41.0539330606,-1.24651961813,-0.627648881542,-0.030977915961,-0.0138857271515,0,1.39561967487,-0.000785198103468
1462275581.91,-170.314397859,-41.6885248057,-1.25194758341,-0.62870391652,-0.0310922578835,-0.0138727779893,0,1.40094302748,-0.000792796794674
1462275581.91,-171.581891571,-42.3241651112,-1.25737904447,-0.629725160619,-0.0312064656893,-0.0138589182496,0,1.4062559651,-0.000800296113271
1462275581.91,-172.854873848,-42.9608197309,-1.26281379995,-0.630712397291,-0.031320527075,-0.0138441434576,0,1.41155829545,-0.000807697343939
1462275581.91,-174.133347912,-43.5984542,-1.26825164049,-0.631665409934,-0.0314344279725,-0.0138284838023,0,1.41684982045,-0.000814985975015
1462275581.91,-175.417316766,-44.2370338518,-1.27369234709,-0.632584015861,-0.0315481659126,-0.0138118775605,0,1.42213034992,-0.000822191593425
1462275581.91,-176.706783196,-44.8765238064,-1.27913570274,-0.633467975553,-0.0316617597018,-0.0137943422275,0,1.42739967146,-0.000829312194106
1462275581.91,-178.001749779,-45.5168889531,-1.2845815132,-0.634317071425,-0.0317751903634,-0.0137758643576,0,1.4326576043,-0.000836351228305
1462275581.91,-179.302218887,-46.1580939567,-1.29002956949,-0.635131077067,-0.0318884511849,-0.0137564489169,0,1.43790395201,-0.000843306739846
1462275581.91,-180.608192683,-46.8001032582,-1.29547966026,-0.635909775464,-0.0320015520486,-0.0137361199291,0,1.44313852165,-0.000850172249252
1462275581.91,-181.919673119,-47.4428810937,-1.30093158806,-0.636652977486,-0.0321144496307,-0.0137148603474,0,1.44836114646,-0.000856948049875
1462275581.91,-183.236661932,-48.0863915013,-1.30638511694,-0.637360481076,-0.0322271292369,-0.0136926659181,0,1.45357162073,-0.000863635144971
1462275581.91,-184.559160613,-48.7305983154,-1.31184000125,-0.638032084055,-0.03233957974,-0.0136695211428,0,1.45876973137,-0.000870240091422
1462275581.91,-185.887170404,-49.37546516,-1.31729598937,-0.638667573094,-0.0324517955073,-0.0136454212537,0,1.46395525633,-0.000876765846515
1462275581.91,-187.220692292,-50.0209554437,-1.32275282918,-0.63926673446,-0.0325637853,-0.0136203885081,0,1.46912797431,-0.000883206932797
1462275581.91,-188.559727013,-50.6670323724,-1.32821028219,-0.639829380509,-0.0326755600836,-0.0135944270132,0,1.47428768898,-0.000889566117459
1462275581.91,-189.904275076,-51.3136589664,-1.33366812543,-0.640355331372,-0.0327870931558,-0.0135675158193,0,1.47943422267,-0.000895848919141
1462275581.91,-191.254336748,-51.9607980557,-1.33912611422,-0.640844390247,-0.0328983652164,-0.0135396589878,0,1.48456737209,-0.00090205196484
1462275581.91,-192.609912044,-52.6084122755,-1.34458398984,-0.64129636825,-0.0330093650755,-0.0135108411229,0,1.48968692606,-0.00090818165273
1462275581.91,-193.971000717,-53.2564640643,-1.35004148782,-0.641711065186,-0.033120086832,-0.0134810743672,0,1.49479266456,-0.000914234061659
1462275581.91,-195.337602248,-53.9049156666,-1.35549834316,-0.642088296762,-0.0332305286462,-0.013450373881,0,1.49988437526,-0.000920205085252
1462275581.91,-196.709715856,-54.5537291503,-1.36095429437,-0.64242789723,-0.0333406856958,-0.0134187565666,0,1.50496185816,-0.000926089605658
1462275581.91,-198.087340493,-55.2028664258,-1.36640908046,-0.642729720721,-0.0334505376772,-0.0133861993549,0,1.51002492333,-0.000931895781473
1462275581.91,-199.470474842,-55.8522892462,-1.37186242578,-0.642993601674,-0.0335601029625,-0.0133526646351,0,1.51507336029,-0.000937644412774
1462275581.91,-200.859117319,-56.5019591802,-1.37731407817,-0.643219340983,-0.0336693325676,-0.013318155082,0,1.52010696681,-0.000943327191005
1462275581.91,-202.253266064,-57.1518375988,-1.38276374252,-0.643406746144,-0.0337782340687,-0.0132826829283,0,1.52512550585,-0.000948942952289
1462275581.91,-203.652918923,-57.8018856864,-1.38821113706,-0.64355564049,-0.0338868044014,-0.0132462421275,0,1.53012876042,-0.000954495769249
1462275581.91,-205.058073463,-58.4520644479,-1.39365598263,-0.643665844966,-0.0339950667469,-0.0132088335695,0,1.53511651606,-0.000959991581509
1462275581.91,-206.468726979,-59.1023347097,-1.39909802839,-0.643737184964,-0.03410303515,-0.0131704737227,0,1.54008858717,-0.000965428430858
1462275581.91,-207.884876525,-59.7526571315,-1.40453704227,-0.643769505513,-0.0342106809598,-0.0131311450698,0,1.54504481467,-0.000970809914765
1462275581.91,-209.306518907,-60.4029922095,-1.40997276876,-0.643762637571,-0.0343179396293,-0.0130908081761,0,1.54998501354,-0.000976141712396
1462275581.91,-210.733650646,-61.0533002512,-1.41540489422,-0.643716376833,-0.0344248202718,-0.0130494743539,0,1.55490893251,-0.000981423051243
1462275581.91,-212.16626795,-61.7035413652,-1.42083312021,-0.643630534163,-0.0345312756453,-0.0130071898877,0,1.55981634175,-0.000986630539322
1462275581.91,-213.604366708,-62.3536754943,-1.42625710793,-0.643504969569,-0.0346373044742,-0.0129639375365,0,1.56470699615,-0.000991773407281
1462275581.91,-215.047942468,-63.0036624327,-1.43167652416,-0.643339528964,-0.0347429311286,-0.0129196818973,0,1.5695806508,-0.000996871518103
1462275581.91,-216.496990458,-63.6534618026,-1.43709106618,-0.643134026644,-0.0348481694017,-0.0128744531594,0,1.57443707678,-0.00100191791268
1462275581.91,-217.951505609,-64.3030330558,-1.44250045087,-0.642888310207,-0.034952997093,-0.0128282708712,0,1.57927607788,-0.00100690392879
1462275581.91,-219.411482558,-64.9523355014,-1.44790437901,-0.642602249457,-0.0350574056667,-0.0127811284576,0,1.58409745336,-0.00101183312093
1462275581.91,-220.87691564,-65.6013283151,-1.45330254898,-0.642275710356,-0.0351613776877,-0.0127330289695,0,1.58890099974,-0.00101670404428
1462275581.91,-222.347798878,-66.24997054,-1.45869464813,-0.641908564539,-0.0352649024694,-0.0126839689155,0,1.59368650673,-0.00102151884414
1462275581.91,-223.824125977,-66.898221089,-1.46408035959,-0.641500682786,-0.0353679720243,-0.0126339321039,0,1.59845376078,-0.00102628462422
1462275581.91,-225.305890323,-67.5460387378,-1.46945936498,-0.641051922592,-0.0354705748248,-0.0125829251538,0,1.60320254266,-0.00103099956355
1462275581.91,-226.793084975,-68.193382123,-1.47483134101,-0.640562150791,-0.0355727004587,-0.0125309277842,0,1.60793263337,-0.00103567170638
1462275581.91,-228.285702667,-68.8402097377,-1.48019596064,-0.640031217003,-0.0356743572286,-0.0124779727377,0,1.61264380464,-0.0010402929704
1462275581.91,-229.783735806,-69.486479941,-1.48555291151,-0.639459005946,-0.0357755390064,-0.0124240646701,0,1.61733585664,-0.00104486328214
1462275581.91,-231.287176487,-70.1321509793,-1.49090188151,-0.638845409204,-0.035876262423,-0.0123691963798,0,1.62200859343,-0.00104939017028
1462275581.91,-232.7960165,-70.7771809867,-1.49624258105,-0.638190313472,-0.0359765302863,-0.0123133589318,0,1.62666183873,-0.00105387936078
1462275581.91,-234.310247346,-71.4215279796,-1.50157472911,-0.637493598956,-0.0360763102505,-0.0122565745268,0,1.63129542261,-0.00105832042109
1462275581.91,-235.82986023,-72.0651498659,-1.50689801858,-0.636755170013,-0.0361755648755,-0.0121988575689,0,1.63590916158,-0.00106270544017
1462275581.91,-237.354846031,-72.7080044647,-1.51221211178,-0.63597494703,-0.0362742839334,-0.0121401716801,0,1.64050285104,-0.00106704831779
1462275581.91,-238.885195285,-73.3500494975,-1.5175166678,-0.635152816336,-0.0363724300005,-0.0120804952185,0,1.64507627092,-0.00107135355159
1462275581.91,-240.420898168,-73.9912425615,-1.52281131585,-0.634288645324,-0.036469997847,-0.0120198440683,0,1.64962916719,-0.00107561745069
1462275581.91,-241.961944482,-74.6315411288,-1.52809568742,-0.633382319604,-0.0365670023989,-0.0119582342546,0,1.65416129585,-0.00107983928699
1462275581.91,-243.508323671,-75.2709025656,-1.53336943602,-0.632433742781,-0.036663433686,-0.0118956535553,0,1.65867244094,-0.00108402436106
1462275581.91,-245.060024824,-75.9092841351,-1.53863221231,-0.63144280841,-0.0367592894041,-0.0118321037832,0,1.66316238085,-0.00108817418021
1462275581.91,-246.617036681,-76.5466429954,-1.54388367168,-0.630409413949,-0.0368545787817,-0.0117675658023,0,1.66763090067,-0.00109229876021
1462275581.91,-248.179347642,-77.1829361923,-1.54912348546,-0.629333440157,-0.0369492970524,-0.0117020440341,0,1.67207779487,-0.00109639800965
1462275581.91,-249.746945776,-77.8181206544,-1.55435132686,-0.628214774507,-0.037043442333,-0.0116355500373,0,1.67650286317,-0.00110046990471
1462275581.91,-251.319818824,-78.452153204,-1.55956687381,-0.627053318053,-0.037137005958,-0.0115681131662,0,1.68090591574,-0.00110450578286
1462275581.91,-252.897954201,-79.0849905786,-1.56476980217,-0.625849002595,-0.0372299622617,-0.0114997169135,0,1.68528677317,-0.00110851013735
1462275581.91,-254.481338984,-79.7165894397,-1.56995976914,-0.624601745118,-0.0373222634819,-0.0114303203161,0,1.68964523399,-0.00111249250549
1462275581.91,-256.069959885,-80.3469063449,-1.57513639197,-0.623311424126,-0.0374139251794,-0.0113599396941,0,1.69398104616,-0.00111645182556
1462275581.91,-257.66380324,-80.9758977389,-1.58029931081,-0.621977936544,-0.0375049386402,-0.0112885949043,0,1.69829398671,-0.00112038280219
1462275581.91,-259.26285502,-81.6035199729,-1.58544816446,-0.620601200819,-0.0375952711073,-0.0112163021892,0,1.70258384012,-0.00112427852807
1462275581.91,-260.86710082,-82.2297293248,-1.59058256686,-0.619181152948,-0.0376849178153,-0.0111430938527,0,1.70685037486,-0.00112813085397
1462275581.91,-262.476525846,-82.8544820247,-1.59570213498,-0.617717761865,-0.0377739093994,-0.0110690493318,0,1.71109337469,-0.00113192132382
1462275581.91,-264.091114935,-83.4777343112,-1.60080652349,-0.616211074973,-0.0378622395898,-0.0109940925695,0,1.71531268711,-0.00113567687636
1462275581.91,-265.710852578,-84.0994424325,-1.60589538782,-0.614661064191,-0.0379499276715,-0.0109181678978,0,1.71950813329,-0.00113942012927
1462275581.91,-267.33572293,-84.7195625806,-1.61096840918,-0.613067647447,-0.0380369535636,-0.0108412575623,0,1.72367953974,-0.00114315614854
1462275581.91,-268.965709816,-85.3380508569,-1.61602525549,-0.611430726909,-0.0381232824744,-0.0107633571485,0,1.7278267159,-0.00114688397991
1462275581.91,-270.600796713,-85.9548632623,-1.6210655672,-0.609750202377,-0.0382088799368,-0.010684503373,0,1.7319494457,-0.00115059005956
1462275581.91,-272.24096672,-86.5699557164,-1.6260889582,-0.608026011635,-0.0382937813091,-0.0106047484854,0,1.73604750246,-0.00115426475974
1462275581.91,-273.886202569,-87.1832841023,-1.63109508472,-0.606258144918,-0.0383780085187,-0.0105240410365,0,1.74012071813,-0.00115792922253
1462275581.91,-275.536486658,-87.7948042677,-1.63608363137,-0.604446542235,-0.0384613362574,-0.0104423754126,0,1.74416893427,-0.00116156144007
1462275581.91,-277.191800957,-88.4044719977,-1.64105406827,-0.602591139295,-0.0385438560944,-0.0103597455424,0,1.74819179044,-0.00116517702026
1462275581.91,-278.852126954,-89.0122430097,-1.64600596588,-0.60069186714,-0.0386255664952,-0.0102761751718,0,1.75218901919,-0.00116877112158
1462275581.91,-280.517445703,-89.6180729644,-1.65093890173,-0.598748681466,-0.0387065188755,-0.0101917106296,0,1.75616036876,-0.00117233806072
1462275581.91,-282.187737864,-90.2219175012,-1.65585251219,-0.596761584254,-0.0387867184403,-0.0101064001557,0,1.76010565892,-0.00117586651457
1462275581.91,-283.862983735,-90.8237322856,-1.66074644602,-0.594730624721,-0.0388661348386,-0.0100202036712,0,1.76402473734,-0.00117936841502
1462275581.91,-285.543163249,-91.4234730121,-1.66562032924,-0.592655811824,-0.038944729662,-0.0099330764277,0,1.76791741676,-0.00118285594728
1462275581.91,-287.228255943,-92.0210953622,-1.67047375773,-0.590537110487,-0.039022523721,-0.00984500630258,0,1.77178346705,-0.00118633752149
1462275581.91,-288.918240962,-92.6165549758,-1.67530635582,-0.588374474454,-0.0390995230583,-0.00975601987554,0,1.77562268177,-0.00118980803903
1462275581.92,-290.61309708,-93.2098074602,-1.6801177613,-0.586167884443,-0.0391756902872,-0.00966612499857,0,1.77943487675,-0.00119326362501
1462275581.92,-292.312802686,-93.8008084071,-1.68490758255,-0.583917329253,-0.0392510118153,-0.00957533194523,0,1.78321984319,-0.00119670242891
1462275581.92,-294.017335775,-94.3895134023,-1.68967542248,-0.581622807974,-0.0393254853099,-0.0094836289372,0,1.7869773709,-0.00120013040246
1462275581.92,-295.72667394,-94.9758780248,-1.69442088964,-0.579284308173,-0.0393990994823,-0.00939102530878,0,1.7907072516,-0.00120354617385
1462275581.92,-297.440794379,-95.5598578456,-1.69914358934,-0.576901826812,-0.039471839394,-0.0092975328721,0,1.79440927744,-0.00120694737604
1462275581.92,-299.159673888,-96.1414084389,-1.70384312016,-0.57447537249,-0.0395437143553,-0.00920317473756,0,1.79808323826,-0.00121033087322
1462275581.92,-300.883288866,-96.7204853987,-1.70851909782,-0.572004976283,-0.0396147330065,-0.00910796839897,0,1.80172894757,-0.00121369517612
1462275581.92,-302.61161533,-97.2970443592,-1.71317115421,-0.569490685789,-0.0396848794572,-0.00901190746393,0,1.80534623959,-0.00121704339334
1462275581.92,-304.344628924,-97.8710409987,-1.71779891299,-0.566932541388,-0.0397541467782,-0.00891496484253,0,1.80893493857,-0.0012203854627
1462275581.92,-306.08230491,-98.4424310225,-1.72240199858,-0.564330556105,-0.039822514756,-0.00881712577686,0,1.81249486103,-0.00122372619582
1462275581.92,-307.824618166,-99.0111701415,-1.72698002307,-0.561684728245,-0.0398899995651,-0.00871844310258,0,1.81602580764,-0.00122705425308
1462275581.92,-309.571543189,-99.5772140913,-1.73153262218,-0.55899510792,-0.0399565732835,-0.00861891817261,0,1.81952761791,-0.00123036931103
1462275581.92,-311.323054098,-100.140518658,-1.73605941155,-0.556261745571,-0.0400221847221,-0.00851851782623,0,1.82300011246,-0.00123367892809
1462275581.92,-313.079124602,-100.701039663,-1.74055996435,-0.553484658129,-0.0400868536483,-0.00841728041285,0,1.82644306133,-0.00123697664735
1462275581.92,-314.839727993,-101.258732961,-1.74503388164,-0.550663899771,-0.0401505959003,-0.00831520583426,0,1.82985627266,-0.0012402667395
1462275581.92,-316.604837173,-101.813554464,-1.74948078799,-0.547799523494,-0.0402133882265,-0.00821228476879,0,1.83323957667,-0.00124355241668
1462275581.92,-318.374424655,-102.36546013,-1.75390029269,-0.544891572097,-0.040275225748,-0.00810855291294,0,1.83659278612,-0.00124682575616
1462275581.92,-320.14846256,-102.914405978,-1.75829200807,-0.54194012251,-0.0403361128771,-0.00800402928209,0,1.83991572688,-0.00125008462794
1462275581.92,-321.926922625,-103.460348115,-1.76265555853,-0.538945268756,-0.040396034597,-0.00789870835562,0,1.84320824128,-0.00125333218681
1462275581.92,-323.709776201,-104.003242738,-1.76699056126,-0.535907097569,-0.040454969845,-0.00779257485546,0,1.84647016245,-0.00125657377451
1462275581.92,-325.496994247,-104.543046123,-1.77129662048,-0.532825678976,-0.0405129028192,-0.00768563470775,0,1.84970130613,-0.00125980916057
1462275581.92,-327.288547319,-105.07971462,-1.77557333284,-0.52970108741,-0.04056982713,-0.00757789583947,0,1.85290148208,-0.00126303841355
1462275581.92,-329.084405565,-105.613204655,-1.77982029677,-0.526533403585,-0.040625751299,-0.00746935937005,0,1.85607050348,-0.0012662647501
1462275581.92,-330.884538737,-106.143472738,-1.78403712711,-0.523322707696,-0.0406806846927,-0.00736004729614,0,1.85920819901,-0.00126948552559
1462275581.92,-332.688916207,-106.67047547,-1.78822345556,-0.520069099892,-0.0407346675459,-0.00725005942116,0,1.86231441913,-0.00127267908249
1462275581.92,-334.497506996,-107.194169599,-1.79237896065,-0.516772776127,-0.0407876796617,-0.00713932287037,0,1.86538908561,-0.00127586713274
1462275581.92,-336.310279797,-107.714512037,-1.7965033075,-0.513433857017,-0.0408396776372,-0.00702780066195,0,1.86843208584,-0.00127905909409
1462275581.92,-338.127202943,-108.231459794,-1.80059612544,-0.510052424526,-0.0408905148801,-0.00691540084508,0,1.87144326195,-0.00128227134852
1462275581.92,-339.948244326,-108.744969919,-1.80465690751,-0.506628468864,-0.0409402305351,-0.0068021482215,0,1.87442230015,-0.0012855026877
1462275581.92,-341.773371349,-109.254999462,-1.80868519528,-0.503162004743,-0.0409889399816,-0.00668815319929,0,1.87736894047,-0.001288734177
1462275581.92,-343.602551014,-109.761505543,-1.81268065256,-0.499653154784,-0.041036574886,-0.0065735186436,0,1.88028306998,-0.00129193521954
1462275581.92,-345.435749954,-110.264445458,-1.8166428829,-0.496102139959,-0.0410831511489,-0.00645818379138,0,1.88316454333,-0.00129512718183
1462275581.92,-347.272934412,-110.763776689,-1.82057151337,-0.492509117275,-0.0411286352207,-0.00634210951378,0,1.88601321996,-0.00129832122742
1462275581.92,-349.114070243,-111.259456861,-1.82446614561,-0.488874202253,-0.0411730121855,-0.00622533812257,0,1.88882892347,-0.00130150763189
1462275581.92,-350.959122895,-111.751443733,-1.82832637464,-0.485197549568,-0.0412163358081,-0.00610788108578,0,1.89161148081,-0.00130469027315
1462275581.92,-352.808057438,-112.239695223,-1.83215185624,-0.481479322041,-0.0412585501759,-0.00598973030762,0,1.89436077923,-0.00130787019585
1462275581.92,-354.660838569,-112.72416941,-1.83594219829,-0.477719671302,-0.0412996438211,-0.00587089873743,0,1.89707665628,-0.0013110460971
1462275581.92,-356.517430589,-113.204824531,-1.83969700527,-0.473918758638,-0.0413396080409,-0.00575138118224,0,1.89975894813,-0.001314221818
1462275581.92,-358.377797398,-113.68161898,-1.84341588104,-0.470076737024,-0.0413784541023,-0.00563119424653,0,1.90240748768,-0.00131739665246
1462275581.92,-360.241902507,-114.154511314,-1.84709844844,-0.466193772645,-0.0414162106143,-0.00551034331955,0,1.90502212898,-0.00132057403296
1462275581.92,-362.10970906,-114.623460258,-1.85074436588,-0.462270033645,-0.0414528608502,-0.00538882290081,0,1.90760276049,-0.00132375705858
1462275581.92,-363.981179857,-115.088424703,-1.85435328219,-0.458305679415,-0.0414883907758,-0.00526663579051,0,1.91014925882,-0.00132694677857
1462275581.92,-365.856277334,-115.549363701,-1.85792483951,-0.454300868902,-0.0415227818848,-0.00514379049983,0,1.91266149351,-0.00133014246434
1462275581.92,-367.734963565,-116.006236465,-1.86145866897,-0.450255766214,-0.0415559977632,-0.00502029846487,0,1.91513932425,-0.00133334156194
1462275581.92,-369.617200232,-116.45900238,-1.86495437339,-0.446170543385,-0.0415880715966,-0.00489619737541,0,1.91758258457,-0.00133653920111
1462275581.92,-371.502948642,-116.907621022,-1.86841159609,-0.442045405945,-0.0416190476705,-0.00477148376732,0,1.91999115449,-0.00133974206427
1462275581.92,-373.392169762,-117.35205217,-1.87183003089,-0.437880551918,-0.0416488227544,-0.00464610510362,0,1.92236496074,-0.00134296030088
1462275581.92,-375.284824204,-117.792255775,-1.87520927657,-0.433676123881,-0.0416773908972,-0.00452010830933,0,1.92470382432,-0.00134618397335
1462275581.93,-377.180872176,-118.228191953,-1.87854893412,-0.429432307547,-0.0417047856395,-0.0043934826829,0,1.92700757773,-0.0013494209393
1462275581.94,-379.080273503,-118.659821002,-1.88184864536,-0.425149274425,-0.0417309995113,-0.00426625305665,0,1.92927608952,-0.0013526669631
1462275581.95,-380.982987648,-119.087103403,-1.88510805197,-0.420827216932,-0.0417560432914,-0.00413845100119,0,1.93150923221,-0.00135591725831
1462275581.95,-382.888973722,-119.509999845,-1.88832681336,-0.416466354575,-0.0417799283456,-0.00401008300961,0,1.93370690089,-0.00135917370468
1462275581.97,-384.798190499,-119.928471241,-1.89150460687,-0.412066908833,-0.0418026404222,-0.00388115287719,0,1.93586900775,-0.00136243733207
1462275581.98,-386.710596426,-120.342478726,-1.89464110235,-0.407629100476,-0.0418241472646,-0.00375167898148,0,1.93799545672,-0.00136570439887
1462275581.98,-388.626149602,-120.751983666,-1.89773594462,-0.403153163868,-0.0418444362217,-0.00362166684318,0,1.94008612928,-0.00136897582161
1462275582.0,-390.544807765,-121.156947664,-1.90078877323,-0.398639334097,-0.0418635062074,-0.00349113188938,0,1.94214090094,-0.00137225060493
1462275582.01,-392.466528291,-121.557332564,-1.90379923384,-0.394087856667,-0.0418813666932,-0.00336007631105,0,1.94415965434,-0.00137553177932
1462275582.03,-394.391268208,-121.953100459,-1.90676698853,-0.389498974318,-0.0418980184556,-0.0032284932349,0,1.94614228656,-0.00137882414205
1462275582.03,-396.318984206,-122.344213679,-1.90969170684,-0.384872918202,-0.0419134657812,-0.00309639443471,0,1.94808869879,-0.00138212772985
1462275582.04,-398.249632646,-122.730634795,-1.91257306917,-0.380209926384,-0.0419277202949,-0.00296380059502,0,1.94999880334,-0.00138544063909
1462275582.05,-400.183169575,-123.112326622,-1.91541077368,-0.375510252439,-0.0419407887929,-0.00283071452017,0,1.95187253211,-0.00138876532792
1462275582.07,-402.119550743,-123.489252231,-1.91820453122,-0.37077414762,-0.041952639896,-0.00269713530237,0,1.95370982803,-0.00139210322073
1462275582.08,-404.058731594,-123.861374947,-1.92095402769,-0.366001857264,-0.0419632793305,-0.0025630550164,0,1.9555106075,-0.00139545945893
1462275582.08,-406.000667262,-124.228658331,-1.92365896088,-0.361193614035,-0.0419726670043,-0.00242854103045,0,1.95727479537,-0.0013988175086
1462275582.1,-407.945312556,-124.591066216,-1.92631899533,-0.356349711964,-0.0419807968629,-0.00229358261547,0,1.95900229428,-0.00140218304405
1462275582.11,-409.89262195,-124.948562719,-1.92893379635,-0.351470428688,-0.041987701794,-0.00215815463629,0,1.96069300324,-0.00140556712758
1462275582.11,-411.842549597,-125.301112225,-1.93150306818,-0.346556011658,-0.041993357182,-0.00202229044599,0,1.96234685303,-0.00140896282291
1462275582.13,-413.795049344,-125.648679382,-1.93402649686,-0.341606736062,-0.0419977879104,-0.00188598415325,0,1.96396376053,-0.00141237572262
1462275582.14,-415.750074735,-125.99122911,-1.93650379907,-0.336622865811,-0.0420009962738,-0.00174925404178,0,1.96554366973,-0.00141580401207
1462275582.14,-417.707579032,-126.328726603,-1.93893469944,-0.331604677455,-0.0420029729664,-0.0016121171334,0,1.96708653363,-0.00141924572922
1462275582.16,-419.667515218,-126.661137339,-1.94131891896,-0.326552458697,-0.0420037138562,-0.00147459488312,0,1.96859230248,-0.00142269809466
1462275582.16,-421.629835994,-126.988427095,-1.94365618016,-0.321466512509,-0.0420031959268,-0.00133669340591,0,1.97006092934,-0.0014261615208
1462275582.17,-423.594493772,-127.310561954,-1.94594618856,-0.316347141796,-0.042001414984,-0.00119842678094,0,1.97149234919,-0.00142963526537
1462275582.19,-425.561440668,-127.62750831,-1.94818865147,-0.311194657206,-0.0419983682543,-0.0010598035687,0,1.97288649861,-0.00143312008146
1462275582.19,-427.530628504,-127.939232869,-1.95038327933,-0.306009371559,-0.0419940553731,-0.000920833709704,0,1.97424331626,-0.0014366164645
1462275582.2,-429.502008811,-128.245702657,-1.95252978801,-0.300791601163,-0.041988470792,-0.000781529559995,0,1.97556274525,-0.00144012408825
1462275582.21,-431.475532834,-128.546885023,-1.95462789363,-0.295541668109,-0.0419816126411,-0.000641908049487,0,1.97684472838,-0.00144364164401
1462275582.22,-433.451151534,-128.842747645,-1.95667731614,-0.290259904635,-0.0419734799327,-0.000501976008631,0,1.97808921228,-0.00144717045024
1462275582.23,-435.42881559,-129.133258538,-1.95867778016,-0.284946643031,-0.0419640693121,-0.000361739389843,0,1.97929614658,-0.00145071193668
1462275582.25,-437.408475405,-129.41838605,-1.96062901248,-0.279602214772,-0.0419533807479,-0.000221214746844,0,1.98046548142,-0.00145426496159
1462275582.25,-439.390081108,-129.698098873,-1.96253074536,-0.274226960929,-0.0419414040102,-8.04145791953e-05,0,1.98159717213,-0.00145782907563
1462275582.26,-441.373582555,-129.972366041,-1.96438270638,-0.268821227998,-0.041928140923,6.06540505894e-05,0,1.98269116853,-0.0014614056733
1462275582.28,-443.358929332,-130.241156942,-1.96618463036,-0.263385362468,-0.0419136009105,0.000201987095474,0,1.98374742592,-0.00146499712904
1462275582.28,-445.346070763,-130.504441311,-1.96793626665,-0.257919707865,-0.0418977682484,0.000343568189666,0,1.98476591196,-0.00146860179653
1462275582.29,-447.334955914,-130.762189234,-1.9696373542,-0.252424616882,-0.0418806422094,0.000485379085605,0,1.98574658359,-0.00147221814893
1462275582.31,-449.325533589,-131.014371162,-1.97128763648,-0.24690045304,-0.0418622350992,0.000627410945768,0,1.98668940186,-0.00147584747637
1462275582.33,-451.317752343,-131.260957909,-1.97288687415,-0.241347581253,-0.0418425442041,0.000769666591967,0,1.98759434321,-0.00147949345854
1462275582.33,-453.311560489,-131.501920657,-1.97443482998,-0.235766356368,-0.0418215602281,0.0009121453327,0,1.98846138324,-0.00148315863136
1462275582.33,-455.306906099,-131.737230941,-1.97593126241,-0.230157126814,-0.0417992948482,0.00105481545818,0,1.9892904908,-0.00148683834927
1462275582.34,-457.303737009,-131.96686066,-1.97737594611,-0.224520265129,-0.0417757470424,0.00119767735697,0,1.99008165202,-0.00149053571239
1462275582.36,-459.302000829,-132.190782087,-1.97876865929,-0.218856136017,-0.0417509119853,0.00134073664518,0,1.99083485384,-0.0014942549694
1462275582.36,-461.301644944,-132.408967854,-1.98010917985,-0.213165091384,-0.041724785132,0.00148397115778,0,1.99155007979,-0.00149799334902
1462275582.37,-463.302616516,-132.62139096,-1.98139728568,-0.207447497822,-0.0416973670425,0.00162736499245,0,1.99222731335,-0.0015017498688
1462275582.39,-465.304862486,-132.828024775,-1.98263275967,-0.201703730173,-0.0416686603317,0.00177090704492,0,1.99286654206,-0.0015055248252
1462275582.39,-467.308329575,-133.028843052,-1.9838153916,-0.195934166665,-0.0416386686104,0.00191458435032,0,1.99346775886,-0.00150931806198
1462275582.4,-469.312964301,-133.223819926,-1.98494497901,-0.190139190668,-0.0416073866645,0.00205839595502,0,1.99403096303,-0.00151313221215
1462275582.42,-471.318712974,-133.412929919,-1.98602131836,-0.184319178819,-0.041574813291,0.00220233799033,0,1.99455615029,-0.00151696924794
1462275582.42,-473.325521699,-133.596147929,-1.98704420902,-0.178474504012,-0.0415409583636,0.00234640030387,0,1.99504331712,-0.00152082979052
1462275582.43,-475.333336387,-133.773449233,-1.98801346403,-0.172605541634,-0.0415058231496,0.00249056733922,0,1.99549247209,-0.00152471287322
1462275582.45,-477.342102762,-133.944809491,-1.98892890144,-0.166712674809,-0.0414693961966,0.00263482968551,0,1.99590362766,-0.00152861882226
1462275582.45,-479.351766362,-134.110204751,-1.98979033168,-0.160796288221,-0.0414316844552,0.00277917353989,0,1.99627678701,-0.00153254729073
1462275582.47,-481.362272536,-134.269611452,-1.99059757581,-0.154856772388,-0.0413927012118,0.0029235848218,0,1.9966119625,-0.00153649796985
1462275582.47,-483.373566462,-134.423006432,-1.99135047149,-0.148894523815,-0.0413524553858,0.0030680564962,0,1.99690918159,-0.00154047218603
1462275582.48,-485.385593161,-134.570366928,-1.99204886833,-0.142909937972,-0.0413109459806,0.00321257869038,0,1.99716848168,-0.00154447032034
1462275582.49,-487.398297503,-134.711670576,-1.99269261803,-0.136903412096,-0.0412681716461,0.00335713855958,0,1.99738990039,-0.0015484920109
1462275582.5,-489.411624207,-134.846895419,-1.99328157388,-0.130875348066,-0.0412241294829,0.0035017203026,0,1.99757347537,-0.00155253615392
1462275582.51,-491.425517845,-134.976019907,-1.9938155893,-0.124826155208,-0.0411788338681,0.0036463087718,0,1.99771924282,-0.00155660212413
1462275582.52,-493.439922852,-135.099022908,-1.9942945347,-0.118756249507,-0.0411322924672,0.003790900262,0,1.99782725428,-0.00156069201417
1462275582.53,-495.454783532,-135.215883707,-1.99471829063,-0.11266604226,-0.0410844885242,0.00393550829229,0,1.99789756895,-0.00156481181435
1462275582.54,-497.470044067,-135.326581995,-1.99508672357,-0.106555923289,-0.0410354105205,0.00408011771023,0,1.99793022885,-0.00156896038537
1462275582.55,-499.485648496,-135.43109786,-1.99539969141,-0.100426289467,-0.0409850535768,0.00422470671239,0,1.99792526589,-0.00157313509418
1462275582.56,-501.501540714,-135.529411796,-1.99565705008,-0.0942775510994,-0.040933442933,0.00436925672337,0,1.99788270882,-0.00157733455607
1462275582.57,-503.517664486,-135.621504719,-1.99585868316,-0.0881101284885,-0.0408805780612,0.00451375657725,0,1.99780261234,-0.00158155887711
1462275582.58,-505.533963458,-135.707357969,-1.99600447599,-0.0819244444731,-0.0408264534899,0.00465820287612,0,1.99768503093,-0.0015858100696
1462275582.59,-507.550381161,-135.786953312,-1.99609431089,-0.075720916765,-0.0407710827372,0.00480259453632,0,1.99753001359,-0.00159009090595
1462275582.61,-509.566861013,-135.860272931,-1.99612808576,-0.0694999557841,-0.0407144730141,0.00494690150702,0,1.99733762259,-0.0015943967452
1462275582.61,-511.583346335,-135.927299436,-1.9961057076,-0.0632619931915,-0.0406566064515,0.00509109432478,0,1.9971079279,-0.00159872295906
1462275582.62,-513.599780346,-135.988015883,-1.99602706777,-0.0570074808894,-0.0405974980966,0.00523515533182,0,1.99684098218,-0.00160306829543
1462275582.64,-515.616106163,-136.042405786,-1.99589207455,-0.0507368790465,-0.0405371702959,0.00537906182958,0,1.99653685268,-0.00160743024861
1462275582.64,-517.632266823,-136.090453134,-1.99570065994,-0.0444506608725,-0.0404756227199,0.00552280665038,0,1.99619562803,-0.00161181003439
1462275582.65,-519.648205294,-136.132142391,-1.99545275701,-0.0381492971377,-0.0404128537703,0.00566638811922,0,1.99581739504,-0.00161621023266
1462275582.67,-521.663864478,-136.167458495,-1.99514829857,-0.0318332508381,-0.0403488664071,0.00580979601013,0,1.99540223743,-0.00162063126822
1462275582.67,-523.67918721,-136.196386847,-1.99478722167,-0.0255029857314,-0.0402836596212,0.00595302305195,0,1.99495024049,-0.00162507428689
1462275582.68,-525.694116261,-136.218913322,-1.99436946367,-0.0191589634259,-0.040217246603,0.00609604660067,0,1.99446148709,-0.00162953660247
1462275582.7,-527.708594348,-136.235024262,-1.99389497607,-0.0128016584887,-0.0401496335352,0.00623885451979,0,1.9939360717,-0.00163401815787
1462275582.71,-529.722564141,-136.244706493,-1.99336371741,-0.00643154788956,-0.0400808190756,0.00638144246699,0,1.99337409301,-0.00163852083624
1462275582.71,-531.735968268,-136.24794732,-1.99277564576,-4.91033141095e-05,-0.0400108105878,0.00652379008303,0,1.99277564636,-0.00164304247525
1462275582.73,-533.748749319,-136.244734528,-1.99213072722,0.00634519303355,-0.0399395977122,0.00666588041221,0,1.99214083232,-0.00164758180038
1462275582.74,-535.760849845,-136.235056395,-1.99142891843,0.0127508519768,-0.0398671829865,0.0068077229648,0,1.99146973901,-0.00165214427582
1462275582.74,-537.772212355,-136.218901681,-1.99067017939,0.0191674034428,-0.0397935769836,0.00694932986582,0,1.99076245506,-0.00165673591549
1462275582.76,-539.782779323,-136.196259613,-1.98985448124,0.0255943986424,-0.03971880004,0.00709069878889,0,1.99001907774,-0.00166135891561
1462275582.78,-541.792493204,-136.167119865,-1.98898181566,0.0320313954827,-0.0396428632104,0.00723182663612,0,1.98923972244,-0.00166601519592
1462275582.78,-543.801296451,-136.131472556,-1.98805218529,0.0384779576765,-0.039565785579,0.00737270155802,0,1.98842451319,-0.00167070435524
1462275582.78,-545.809131529,-136.089308247,-1.98706561145,0.0449336460498,-0.0394875614997,0.00751330237925,0,1.98757359028,-0.00167542370454
1462275582.79,-547.815940922,-136.04061795,-1.98602210949,0.0513980094605,-0.0394081575916,0.00765361585844,0,1.98668708527,-0.00168017283664
1462275582.8,-549.82166711,-135.985393133,-1.98492166174,0.0578705928125,-0.0393275659124,0.00779361330296,0,1.98576509406,-0.0016849474303
1462275582.82,-551.826252555,-135.923625733,-1.9837642431,0.0643509219932,-0.0392458228594,0.00793326460851,0,1.98480770186,-0.00168974257004
1462275582.83,-553.829639709,-135.855308179,-1.98254986464,0.0708385028697,-0.0391629334893,0.00807257636867,0,1.98381502648,-0.00169456285957
1462275582.83,-555.831771041,-135.780433388,-1.98127854217,0.0773328576536,-0.0390788834633,0.00821154375485,0,1.98278718791,-0.00169941011004
1462275582.85,-557.832589024,-135.698994758,-1.97995027712,0.0838335133802,-0.0389936883577,0.0083501387165,0,1.98172428906,-0.00170427996458
1462275582.86,-559.832036146,-135.610986176,-1.97856508617,0.0903399790548,-0.0389073593338,0.0084883551947,0,1.98062644434,-0.00170917372796
1462275582.86,-561.830054912,-135.516402019,-1.97712299659,0.0968517675645,-0.0388199110357,0.00862618561983,0,1.97949377583,-0.0017140922181
1462275582.88,-563.826587864,-135.415237159,-1.97562404948,0.103368394121,-0.0387313537499,0.008763603688,0,1.97832641639,-0.00171903146294
1462275582.89,-565.82157759,-135.307486963,-1.97406829516,0.109889357852,-0.038641670368,0.00890061083617,0,1.97712450415,-0.00172399499484
1462275582.89,-567.81496672,-135.193147299,-1.97245576622,0.116414169315,-0.0385508703168,0.00903722523896,0,1.97588815688,-0.00172899027772
1462275582.91,-569.806697922,-135.072214518,-1.9707865038,0.122942366663,-0.0384589948346,0.00917341681382,0,1.97461749944,-0.00173401177193
1462275582.93,-571.796713923,-134.944685442,-1.96906058867,0.129473467807,-0.0383660421088,0.00930915482363,0,1.97331269208,-0.00173905438958
1462275582.93,-573.784957533,-134.810557397,-1.96727809816,0.136006970178,-0.0382719797141,0.00944442805679,0,1.97197388711,-0.001744118703
1462275582.93,-575.771371621,-134.669828213,-1.96543907632,0.14254237027,-0.0381767990196,0.00957921688942,0,1.97060120015,-0.00174920286145
1462275582.94,-577.755899097,-134.522496234,-1.96354355783,0.149079155416,-0.038080520653,0.00971350869143,0,1.96919473341,-0.00175430633605
1462275582.96,-579.738482915,-134.368560325,-1.96159159691,0.155616810826,-0.0379831650202,0.00984729597718,0,1.96775460485,-0.00175942984836
1462275582.96,-581.719066094,-134.208019866,-1.95958326669,0.162154824667,-0.0378847476994,0.00998057681823,0,1.96628094795,-0.0017645755589
1462275582.97,-583.697591735,-134.040874753,-1.95751865411,0.168692693455,-0.0377852836805,0.0101133667421,0,1.96477390709,-0.00176975005413
1462275582.99,-585.674003031,-133.867125376,-1.95539785903,0.175229938994,-0.037684782276,0.0102456647983,0,1.96323363832,-0.00177495563965
1462275582.99,-587.648243281,-133.686772604,-1.95322098848,0.181766091716,-0.0375832495839,0.0103774503365,0,1.96166030238,-0.00178018954175
1462275583.0,-589.620255894,-133.499817788,-1.9509881533,0.188300671211,-0.0374806937362,0.0105086963285,0,1.96005405974,-0.00178544731597
1462275583.01,-591.589984394,-133.306262768,-1.9486994701,0.194833180189,-0.0373771097779,0.0106393981411,0,1.95841507165,-0.00179073071275
1462275583.02,-593.557372419,-133.106109889,-1.94635504828,0.201363126764,-0.0372725117215,0.0107695419088,0,1.95674348926,-0.00179603859992
1462275583.03,-595.522363723,-132.899361991,-1.9439550088,0.207890015299,-0.0371669154688,0.0108991139548,0,1.95503947139,-0.00180136980715
1462275583.04,-597.48490219,-132.686022419,-1.94149948578,0.214413346669,-0.0370603292782,0.0110281059715,0,1.95330318602,-0.00180672473783
1462275583.06,-599.44493184,-132.466095019,-1.93898861876,0.220932623588,-0.0369527504536,0.0111565077897,0,1.95153480314,-0.0018121036095
1462275583.07,-601.402396834,-132.239584142,-1.93642254183,0.22744734875,-0.0368441743121,0.011284315829,0,1.94973448371,-0.00181750845921
1462275583.07,-603.357241463,-132.006494635,-1.93380138182,0.233957031287,-0.0367346118531,0.0114115292805,0,1.94790237867,-0.00182294157605
1462275583.08,-605.309410151,-131.766831839,-1.9311252738,0.240461189356,-0.0366240730555,0.0115381381359,0,1.94603864471,-0.00182840280579
1462275583.09,-607.258847461,-131.520601581,-1.92839435992,0.246959340942,-0.0365125634537,0.0116641195169,0,1.94414344209,-0.00183388874045
1462275583.11,-609.205498103,-131.26781018,-1.9256087849,0.25345099125,-0.036400092454,0.0117894587062,0,1.94221692853,-0.00183939802697
1462275583.11,-611.149306934,-131.008464459,-1.92276869981,0.259935640957,-0.0362866805006,0.0119141520717,0,1.94025926371,-0.00184493183118
1462275583.12,-613.090218974,-130.742571743,-1.9198742727,0.266412797168,-0.0361723411344,0.012038184208,0,1.93827062132,-0.00185048836384
1462275583.13,-615.028179417,-130.470139853,-1.91692568156,0.272881961749,-0.0360570757556,0.0121615491467,0,1.93625118042,-0.00185606876002
1462275583.15,-616.963133637,-130.191177117,-1.91392310217,0.279342640677,-0.0359408940014,0.0122842443081,0,1.93420111465,-0.00186167473787
1462275583.16,-618.895027186,-129.905692354,-1.91086671625,0.285794347286,-0.0358238070521,0.0124062565334,0,1.93212060085,-0.00186730510227
1462275583.16,-620.823805806,-129.613694879,-1.90775671284,0.292236591743,-0.0357058229412,0.0125275739391,0,1.93000981887,-0.00187295910558
1462275583.18,-622.74941543,-129.3151945,-1.90459328506,0.298668882368,-0.0355869480653,0.0126481848761,0,1.92786894855,-0.00187863612385
1462275583.19,-624.671802189,-129.010201525,-1.90137662846,0.3050907259,-0.0354671842354,0.0127680897117,0,1.92569816802,-0.00188433892953
1462275583.19,-626.59091241,-128.698726754,-1.89810693645,0.311501639299,-0.0353465369481,0.0128872836495,0,1.92349765102,-0.00189006873948
1462275583.21,-628.506692615,-128.380781473,-1.89478440393,0.31790114449,-0.035225024295,0.0130057563629,0,1.92126756987,-0.00189582471132
1462275583.22,-630.419089531,-128.05637745,-1.89140923966,0.324288762835,-0.0351026511059,0.0131234950095,0,1.91900810669,-0.00190160587418
1462275583.22,-632.328050096,-127.72552694,-1.88798165295,0.330664012688,-0.0349794294868,0.0132404879299,0,1.91671943986,-0.00190741124852
1462275583.24,-634.233521464,-127.388242683,-1.88450186079,0.337026410606,-0.0348553700857,0.0133567314678,0,1.91440175113,-0.00191324204717
1462275583.24,-636.13545101,-127.044537907,-1.88097008625,0.343375479232,-0.0347304862261,0.0134722234583,0,1.91205522544,-0.00191909970587
1462275583.25,-638.033786339,-126.694426316,-1.87738656103,0.349710748636,-0.0346047967961,0.0135869540467,0,1.90968005363,-0.00192498324232
1462275583.27,-639.928475298,-126.337922091,-1.87375153067,0.356031748629,-0.0344783110602,0.0137009150201,0,1.90727643637,-0.00193089254335
1462275583.27,-641.819465985,-125.975039884,-1.8700652449,0.362338010377,-0.0343510297378,0.0138141044221,0,1.90484457474,-0.00193682961491
1462275583.28,-643.706706744,-125.605794822,-1.86632794914,0.368629072503,-0.0342229716248,0.0139265248188,0,1.90238466322,-0.00194279672498
1462275583.3,-645.590146179,-125.230202487,-1.86253990235,0.374904485375,-0.0340941668949,0.0140381732938,0,1.89989690799,-0.00194879392122
1462275583.3,-647.469733165,-124.848278915,-1.85870138786,0.381163805495,-0.0339646204033,0.0141490476107,0,1.89738153671,-0.00195482269759
1462275583.31,-649.345416863,-124.460040586,-1.8548126881,0.387406596044,-0.0338343403137,0.014259136999,0,1.89483877377,-0.00196088201896
1462275583.33,-651.217146721,-124.065504421,-1.85087408784,0.393632418382,-0.03370333235,0.0143684393472,0,1.89226884185,-0.00196697335465
1462275583.33,-653.084872475,-123.664687783,-1.84688587179,0.399840840575,-0.0335715968532,0.0144769584128,0,1.88967196127,-0.00197310008088
1462275583.34,-654.948544146,-123.257608463,-1.84284831927,0.406031443008,-0.0334391458846,0.0145846990829,0,1.88704834611,-0.00197926516797
1462275583.35,-656.808112038,-122.844284671,-1.83876171585,0.412203819249,-0.0333060033179,0.0146916484433,0,1.88439821595,-0.00198546589139
1462275583.36,-658.663526755,-122.424735027,-1.83462636479,0.418357558338,-0.0331721723523,0.014797808608,0,1.88172180329,-0.00199170488212
1462275583.37,-660.514739206,-121.998978565,-1.8304425664,0.424492259607,-0.033037666074,0.0149031503694,0,1.87901933661,-0.00199797548162
1462275583.39,-662.361700606,-121.56703473,-1.82621062782,0.430607501777,-0.0329024942195,0.0150076367061,0,1.87629104292,-0.00200426912432
1462275583.39,-664.204362481,-121.12892341,-1.8219308596,0.436702835713,-0.0327666715983,0.0151112500933,0,1.87353714238,-0.00201058238719
1462275583.4,-666.042676676,-120.684664949,-1.81760358057,0.442777804091,-0.0326302009181,0.015214027483,0,1.8707578571,-0.00201692777124
1462275583.41,-667.876595357,-120.234280131,-1.81322910586,0.448831994942,-0.0324930977947,0.0153159593478,0,1.86795341217,-0.00202330382731
1462275583.42,-669.706071012,-119.777790156,-1.80880775958,0.454864995204,-0.0323553770115,0.0154170234891,0,1.86512403743,-0.00202970558554
1462275583.42,-671.53105646,-119.315216649,-1.80433987386,0.460876378319,-0.0322170471927,0.015517225811,0,1.86226996338,-0.00203613636706
1462275583.44,-673.351504857,-118.846581658,-1.79982578263,0.466865732048,-0.0320781153499,0.0156165662616,0,1.85939142184,-0.00204259788426
1462275583.45,-675.167369698,-118.371907643,-1.79526582002,0.472832652343,-0.0319385929761,0.0157150287567,0,1.85648864302,-0.00204908699205
1462275583.46,-676.978604814,-117.891217476,-1.79066032474,0.478776727478,-0.0317985014187,0.0158125937759,0,1.85356185583,-0.00205559883793
1462275583.47,-678.78516439,-117.404534452,-1.78600964964,0.484697534829,-0.031657842357,0.015909255894,0,1.85061129599,-0.00206213399774
1462275583.48,-680.58700296,-116.911882289,-1.78131414215,0.490594654908,-0.0315166067353,0.0160049929603,0,1.8476371907,-0.00206868917972
1462275583.49,-682.384075406,-116.413285138,-1.77657413391,0.496467654911,-0.0313747949248,0.01609980204,0,1.84463974414,-0.00207526592554
1462275583.5,-684.176336937,-115.908767582,-1.77178995026,0.502316107812,-0.031232434176,0.016193677361,0,1.84161915173,-0.00208186283034
1462275583.51,-685.963743105,-115.398354635,-1.76696193675,0.50813958947,-0.0310895262051,0.0162866100383,0,1.83857562485,-0.00208847956105
1462275583.52,-687.746249805,-114.882071741,-1.76209043369,0.513937675518,-0.0309460752065,0.0163786000135,0,1.8355093655,-0.00209511812663
1462275583.53,-689.523813276,-114.359944765,-1.75717577872,0.519709950021,-0.0308021029334,0.0164696422328,0,1.83242057112,-0.00210177761556
1462275583.54,-691.296390106,-113.831999994,-1.75221832402,0.525456000408,-0.03065762238,0.0165597314983,0,1.82930944987,-0.00210845772662
1462275583.55,-693.063937241,-113.298264128,-1.74721842747,0.531175417269,-0.0305126282659,0.0166488530962,0,1.82617621198,-0.00211515697615
1462275583.56,-694.826411983,-112.758764284,-1.74217643462,0.536867784957,-0.0303671377302,0.0167369993284,0,1.82302104976,-0.00212187400858
1462275583.57,-696.583771986,-112.213528,-1.73709270091,0.5425326886,-0.0302211723612,0.0168241542461,0,1.81984416084,-0.00212860462573
1462275583.58,-698.335975273,-111.662583234,-1.7319675958,0.548169705989,-0.0300747456143,0.0169103089921,0,1.81664574958,-0.00213534735725
1462275583.59,-700.082980242,-111.105958373,-1.72680149459,0.553778414682,-0.0299278650794,0.0169954576808,0,1.81342602118,-0.00214210209986
1462275583.6,-701.824745669,-110.54368223,-1.72159477248,0.559358394915,-0.0297805558618,0.0170795989181,0,1.81018517687,-0.00214886839111
1462275583.61,-703.56123072,-109.975784035,-1.71634782177,0.564909233957,-0.0296328451765,0.0171627460122,0,1.80692343167,-0.00215564970822
1462275583.63,-705.292394964,-109.402293429,-1.71106105361,0.57043054037,-0.0294847074761,0.0172449219965,0,1.80364102042,-0.00216245729676
1462275583.63,-707.018198371,-108.823240427,-1.70573484586,0.575921953119,-0.0293361056914,0.0173261480514,0,1.8003381517,-0.00216930310516
1462275583.64,-708.73860127,-108.2386554,-1.70036953252,0.581383139147,-0.02918705102,0.0174064249914,0,1.7970149976,-0.00217618846866
1462275583.65,-710.453564328,-107.648569048,-1.69496545187,0.586813772855,-0.0290375777558,0.0174857330063,0,1.79367173336,-0.00218310626631
1462275583.66,-712.163048569,-107.053012409,-1.68952296903,0.592213515744,-0.0288877027619,0.0175640498228,0,1.79030855193,-0.00219005032034
1462275583.67,-713.867015389,-106.452016868,-1.68404245836,0.597582014256,-0.028737422275,0.0176413605714,0,1.78692564628,-0.00219701878723
1462275583.68,-715.565426559,-105.845614174,-1.67852428302,0.602918907331,-0.0285867387807,0.0177176438477,0,1.78352319231,-0.00220400732397
1462275583.69,-717.258244211,-105.233836445,-1.67296880137,0.608223820155,-0.0284356733562,0.0177928788616,0,1.78010135266,-0.00221100984344
1462275583.7,-718.945430849,-104.616716185,-1.66737638523,0.613496365036,-0.028284256684,0.017867041168,0,1.7766602939,-0.00221801807425
1462275583.71,-720.626949363,-103.994286299,-1.66174742907,0.61873613808,-0.0281325034902,0.017940116389,0,1.77320019361,-0.00222502841687
1462275583.72,-722.302763044,-103.366580103,-1.65608233391,0.62394272938,-0.0279804229917,0.0180120963838,0,1.7697212284,-0.00223203972722
1462275583.73,-723.972835589,-102.733631326,-1.65038150177,0.629115729248,-0.0278280236778,0.0180829838746,0,1.76622357083,-0.00223905418588
1462275583.74,-725.637131103,-102.095474104,-1.64464533494,0.63425473886,-0.0276753091361,0.0181527065825,0,1.76270739248,-0.0022460519761
1462275583.75,-727.295614092,-101.452143012,-1.63887423119,0.639359296534,-0.0275222908599,0.0182213397729,0,1.75917283282,-0.00225305700781
1462275583.77,-728.948249469,-100.803673046,-1.63306859161,0.644429023581,-0.0273689690855,0.0182889103456,0,1.75562005894,-0.00226007962769
1462275583.77,-730.595002545,-100.150099567,-1.62722880948,0.649463575248,-0.0272153417232,0.0183553993183,0,1.75204923846,-0.00226711651652
1462275583.78,-732.235839025,-99.4914582921,-1.62135526818,0.654462595075,-0.0270614250616,0.0184208542721,0,1.74846052115,-0.00227418240141
1462275583.8,-733.870725006,-98.8277852699,-1.61544835938,0.65942578036,-0.0269072577345,0.0184852562492,0,1.74485408032,-0.00228126875831
1462275583.8,-735.499626994,-98.1591168614,-1.60950850477,0.664352815877,-0.0267528470179,0.0185486033099,0,1.74123010854,-0.00228837602378
1462275583.81,-737.122511922,-97.4854897439,-1.60353612475,0.669243390803,-0.02659820221,0.0186109149995,0,1.73758879471,-0.00229551093031
1462275583.83,-738.739347148,-96.8069408956,-1.59753164042,0.674097219687,-0.0264433238561,0.0186722040275,0,1.73393033417,-0.00230267914847
1462275583.83,-740.350100451,-96.1235075739,-1.59149546499,0.67891403524,-0.0262882082567,0.0187324682362,0,1.73025491831,-0.00230988232468
1462275583.84,-741.95474002,-95.4352273045,-1.58542799978,0.683693573407,-0.0261328554605,0.0187916893746,0,1.72656272542,-0.0023171167191
1462275583.84,-743.553234447,-94.7421378864,-1.57932963814,0.688435557526,-0.025977304925,0.0188498399684,0,1.722853918,-0.00232437053465
1462275583.86,-745.145552738,-94.0442774089,-1.5732008042,0.693139689544,-0.0258215966203,0.0189069147479,0,1.71912867452,-0.00233163862308
1462275583.87,-746.73166434,-93.341684262,-1.56704195281,0.697805672206,-0.0256657278026,0.0189629309166,0,1.7153871977,-0.00233892847964
1462275583.88,-748.311539157,-92.6343971243,-1.560853527,0.70243323106,-0.0255096999571,0.0190179122555,0,1.71162968449,-0.00234624905066
1462275583.89,-749.885147534,-91.9224549371,-1.55463596242,0.707022120449,-0.0253535272824,0.0190718975887,0,1.70785633308,-0.00235361211707
1462275583.9,-751.45246026,-91.2058968679,-1.5483896999,0.711572137677,-0.0251972090996,0.0191248864407,0,1.70406736073,-0.00236101910314
1462275583.91,-753.013448565,-90.484762287,-1.54211517082,0.716083083636,-0.0250407316923,0.0191768898147,0,1.70026297459,-0.00236847698092
1462275583.93,-754.568084101,-89.7590907584,-1.53581278447,0.720554773981,-0.024884162571,0.0192278712025,0,1.69644336517,-0.00237596589471
1462275583.93,-756.116338967,-89.0289220489,-1.5294830081,0.72498699228,-0.024727487038,0.019277808502,0,1.692608759,-0.00238348248259
1462275583.93,-757.658185719,-88.2942961523,-1.52312628523,0.729379504767,-0.0245706960874,0.0193267185557,0,1.68875935016,-0.00239103506383
1462275583.95,-759.193597352,-87.5552532883,-1.51674304169,0.733732098856,-0.0244138108652,0.0193745837916,0,1.68489532239,-0.00239861646987
1462275583.96,-760.722547299,-86.8118338975,-1.51033371551,0.738044548994,-0.0242568656092,0.0194213845871,0,1.68101686146,-0.00240621678572
1462275583.98,-762.245009447,-86.0640786562,-1.50389876949,0.74231661491,-0.0240998790706,0.019467137309,0,1.67712416525,-0.00241383985132
1462275583.98,-763.760958156,-85.3120284727,-1.49743867559,0.746548077174,-0.0239428672247,0.0195118345492,0,1.67321744513,-0.00242148218618
1462275583.99,-765.270368266,-84.5557244782,-1.49095391196,0.750738713489,-0.0237858137481,0.0195554718483,0,1.66929691293,-0.00242914640947
1462275583.99,-766.773215084,-83.7952080288,-1.4844449312,0.754888301631,-0.0236287132619,0.0195980394415,0,1.66536275378,-0.00243683183085
1462275584.01,-768.269474372,-83.0305207075,-1.47791217157,0.758996614251,-0.023471592399,0.0196395396572,0,1.66141513395,-0.00244453647711
1462275584.02,-769.75912234,-82.2617043234,-1.47135608869,0.76306343083,-0.0233144672702,0.0196799634851,0,1.65745423442,-0.00245225629579
1462275584.02,-771.242135662,-81.4888009108,-1.46477714484,0.767088526429,-0.0231573661604,0.0197193194218,0,1.65348023617,-0.00245999078566
1462275584.04,-772.71849149,-80.7118527247,-1.45817582078,0.771071688934,-0.0230003115274,0.0197576206664,0,1.64949333851,-0.00246774175823
1462275584.05,-774.188167467,-79.9309022254,-1.45155260966,0.775012723408,-0.02284330916,0.019794877298,0,1.6454937557,-0.002475512721
1462275584.05,-775.651141731,-79.1459920634,-1.44490800044,0.778911448692,-0.0226863680667,0.0198310832888,0,1.64148170098,-0.0024833013122
1462275584.07,-777.107392915,-78.357165073,-1.43824248114,0.782767681341,-0.022529482054,0.0198662514542,0,1.63745738189,-0.00249111404447
1462275584.08,-778.556900138,-77.564464266,-1.43155652393,0.786581254139,-0.0223726765489,0.0199004039115,0,1.63342099612,-0.00249895482766
1462275584.08,-779.999643,-76.7679328099,-1.42485061647,0.79035202489,-0.0222159492211,0.0199335543218,0,1.62937276352,-0.00250682961144
1462275584.1,-781.435601591,-75.9676140078,-1.41812523438,0.794079867627,-0.0220592519674,0.0199657057228,0,1.62531289804,-0.00251474931819
1462275584.11,-782.864756451,-75.1635512873,-1.41138079662,0.797764661883,-0.0219025615029,0.0199968446813,0,1.62124156399,-0.00252271521048
1462275584.12,-784.287088529,-74.3557882031,-1.40461769096,0.801406276433,-0.0217459344972,0.0200269384671,0,1.61715889067,-0.00253070728645
1462275584.13,-785.702579187,-73.5443684574,-1.39783635295,0.805004550602,-0.0215894148968,0.0200559429877,0,1.61306503158,-0.00253870388613
1462275584.14,-787.111210247,-72.7293359353,-1.39103725249,0.808559283718,-0.0214328976961,0.0200838164842,0,1.60896014652,-0.00254671287569
1462275584.16,-788.512963949,-71.9107347434,-1.38422074718,0.812070238198,-0.0212764012391,0.0201104849019,0,1.60484427553,-0.00255470817938
1462275584.16,-789.907822896,-71.0886092627,-1.37738720545,0.815537108638,-0.0211200651385,0.0201359432743,0,1.60071742956,-0.00256266297227
1462275584.17,-791.295770134,-70.2630041824,-1.37053712518,0.818959590874,-0.0209639906993,0.0201602371211,0,1.59657972647,-0.00257057397686
1462275584.18,-792.676789255,-69.433964473,-1.36367109356,0.822337431435,-0.0208080663222,0.0201834128956,0,1.5924313808,-0.00257848056181
1462275584.2,-794.050864382,-68.6015353351,-1.35678957668,0.825670427444,-0.02065219179,0.0202055254441,0,1.58827252389,-0.00258642344932
1462275584.2,-795.417980054,-67.765762145,-1.3498929331,0.828958433831,-0.0204964439488,0.0202266477329,0,1.58410322134,-0.00259441332597
1462275584.2,-796.778121209,-66.9266903873,-1.34298158951,0.832201379932,-0.0203409276396,0.020246809955,0,1.57992363313,-0.00260243948701
1462275584.22,-798.131273263,-66.0843656024,-1.33605606681,0.83539922609,-0.0201856550959,0.0202659569963,0,1.57573401328,-0.00261048085726
1462275584.23,-799.477422157,-65.2388333978,-1.32911688747,0.838551879424,-0.0200305696537,0.0202840223047,0,1.57153458601,-0.00261852748218
1462275584.23,-800.816554329,-64.3901395072,-1.32216450798,0.841659183694,-0.0198756790208,0.0203010111778,0,1.56732548236,-0.00262658083685
1462275584.25,-802.148656677,-63.5383298179,-1.31519938326,0.844720990975,-0.0197217647842,0.0203169318891,0,1.56310683266,-0.00263447221113
1462275584.26,-803.473716942,-62.683450361,-1.30822272508,0.847737164406,-0.0195680651914,0.0203318160431,0,1.55887940468,-0.00264237905165
1462275584.28,-804.7917237,-61.8255472886,-1.30123497447,0.850707600841,-0.0194145919747,0.0203457138967,0,1.55464332916,-0.00265031719493
1462275584.28,-806.102665971,-60.9646668308,-1.29423657511,0.853632248443,-0.0192614069537,0.020358597743,0,1.55039876417,-0.00265826367127
1462275584.29,-807.406533249,-60.1008552835,-1.28722802242,0.856511029262,-0.0191084905321,0.0203704575476,0,1.54614589382,-0.00266622010671
1462275584.3,-808.703315517,-59.2341590254,-1.2802097827,0.859343857073,-0.0189558093162,0.0203812933867,0,1.54188487002,-0.00267419517099
1462275584.32,-809.993003204,-58.3646245217,-1.27318228017,0.862130647451,-0.0188033683822,0.0203911197495,0,1.53761580761,-0.00268219383126
1462275584.32,-811.275587169,-57.4922983143,-1.26614593558,0.864871331856,-0.0186512232863,0.020399960913,0,1.53333882455,-0.00269021232684
1462275584.32,-812.551058716,-56.617227002,-1.25910121569,0.867565866914,-0.0184993965824,0.0204078073783,0,1.52905408825,-0.0026982424219
1462275584.34,-813.81940963,-55.7394572314,-1.25204860003,0.870214200806,-0.018347996982,0.0204146555077,0,1.52476176897,-0.00270625667011
1462275584.35,-815.080632228,-54.8590357029,-1.24498866507,0.872816279188,-0.0181968171988,0.0204204953295,0,1.52046211179,-0.00271430283597
1462275584.37,-816.334719302,-53.976009176,-1.23792177263,0.875372039027,-0.0180458911662,0.0204253746964,0,1.51615517737,-0.00272239079612
1462275584.37,-817.58166402,-53.0904244496,-1.23084831052,0.877881465449,-0.0178952840601,0.0204292388102,0,1.51184107329,-0.00273048544276
1462275584.38,-818.821459973,-52.2023283648,-1.22376872268,0.880344490174,-0.0177450177933,0.0204320867697,0,1.5075199196,-0.00273858166264
1462275584.4,-820.054101204,-51.3117678312,-1.21668346567,0.882761045405,-0.0175950902811,0.0204339536683,0,1.50319184368,-0.00274669330592
1462275584.4,-821.279582215,-50.418789809,-1.20959298483,0.885131099092,-0.0174455008774,0.0204348280075,0,1.49885698168,-0.00275481703377
1462275584.41,-822.49789795,-49.5234412959,-1.20249771599,0.887454608557,-0.0172962572811,0.0204347153016,0,1.49451545299,-0.00276295352711
1462275584.43,-823.709043795,-48.6257693297,-1.19539809381,0.889731537381,-0.0171473709584,0.0204336274107,0,1.49016737694,-0.00277110469678
1462275584.43,-824.913015574,-47.7258209786,-1.18829455547,0.891961861496,-0.0169988586921,0.0204315718932,0,1.48581287951,-0.00277926933292
1462275584.44,-826.109809559,-46.8236433311,-1.18118754588,0.894145564722,-0.0168507318937,0.0204285547868,0,1.48145209489,-0.00278744699499
1462275584.45,-827.299422471,-45.919283489,-1.17407751222,0.896282637118,-0.0167029759219,0.0204245871589,0,1.47708516014,-0.00279564622779
1462275584.47,-828.481851471,-45.0127885583,-1.16696487838,0.898373079792,-0.0165555871836,0.0204196921052,0,1.47271219791,-0.00280387702656
1462275584.47,-829.657094143,-44.1042056325,-1.15985005625,0.900416916459,-0.016408599732,0.0204138615181,0,1.46833333287,-0.00281212724024
1462275584.49,-830.825148499,-43.1935817853,-1.15273348286,0.902414162418,-0.0162619821868,0.020407119632,0,1.46394870233,-0.00282041514391
